Time GPS,Mission time,MGT-X raw,MGT-Y raw,MGT-Z raw,MGT-X mgauss,MGT-Y mgauss,MGT-Z mgauss,ACC-X raw,ACC-Y raw,ACC-Z raw,ACC-X mg,ACC-Y mg,ACC-Z mg,GYRO-X raw,GYRO-Y raw,GYRO-Z raw,GYRO-X mdps,GYRO-Y mdps,GYRO-Z mdps,Temp raw,Temp Celsius
Thu 1970-01-01 01:00:00 CET,0,0,0,0,0.000000,0.000000,0.000000,0,0,0,0.000000,0.000000,0.000000,0,0,0,0.000000,0.000000,0.000000,0,0.000000
Thu 1970-01-01 01:00:00 CET,0.0131739,884,3215,197,123.760002,450.100006,27.580000,-17,-24,1348,-12.444000,-17.568001,986.735962,108,48,40,7560.000000,3360.000000,2800.000000,176,35.742188
Thu 1970-01-01 01:00:00 CET,1.01195,895,3218,304,125.300003,450.519989,42.560001,-20,-28,1339,-14.639999,-20.496000,980.148010,111,49,42,7770.000000,3430.000000,2940.000000,178,35.864258
Thu 1970-01-01 01:00:00 CET,2.01423,878,3241,258,122.919998,453.739990,36.119999,-22,-23,1345,-16.104000,-16.836000,984.539978,112,49,42,7840.000000,3430.000000,2940.000000,177,35.803223
Thu 1970-01-01 01:00:00 CET,3.01381,880,3236,389,123.199997,453.040009,54.459999,-15,-26,1348,-10.980000,-19.032000,986.735962,112,50,43,7840.000000,3500.000000,3010.000000,175,35.681152
Thu 1970-01-01 01:00:00 CET,4.01469,846,3232,264,118.440002,452.480011,36.959999,-14,-28,1345,-10.248000,-20.496000,984.539978,112,49,39,7840.000000,3430.000000,2730.000000,177,35.803223
Thu 1970-01-01 01:00:00 CET,5.01399,849,3260,249,118.860001,456.399994,34.860001,-10,-23,1344,-7.320000,-16.836000,983.807983,110,54,43,7700.000000,3780.000000,3010.000000,177,35.803223
Thu 1970-01-01 01:00:00 CET,6.01407,837,3217,331,117.180000,450.380005,46.340000,-17,-27,1345,-12.444000,-19.764000,984.539978,106,49,41,7420.000000,3430.000000,2870.000000,173,35.559082
Thu 1970-01-01 01:00:00 CET,7.01338,856,3184,259,119.840004,445.760010,36.259998,-18,-28,1343,-13.176000,-20.496000,983.075989,110,48,40,7700.000000,3360.000000,2800.000000,174,35.620117
Thu 1970-01-01 01:00:00 CET,8.01459,871,3243,277,121.940002,454.019989,38.779999,-18,-31,1350,-13.176000,-22.691999,988.200012,112,48,40,7840.000000,3360.000000,2800.000000,176,35.742188
Thu 1970-01-01 01:00:00 CET,9.01393,861,3202,307,120.540001,448.279999,42.980000,-12,-29,1344,-8.784000,-21.228001,983.807983,108,50,42,7560.000000,3500.000000,2940.000000,177,35.803223
Thu 1970-01-01 01:00:00 CET,10.0156,864,3197,246,120.959999,447.580017,34.439999,-19,-26,1347,-13.908000,-19.032000,986.003967,105,50,40,7350.000000,3500.000000,2800.000000,178,35.864258
Thu 1970-01-01 01:00:00 CET,11.0137,858,3207,295,120.120003,448.980011,41.299999,-17,-24,1346,-12.444000,-17.568001,985.271973,114,50,42,7980.000000,3500.000000,2940.000000,175,35.681152
Thu 1970-01-01 01:00:00 CET,12.0132,856,3170,222,119.840004,443.799988,31.080000,-15,-26,1345,-10.980000,-19.032000,984.539978,112,47,43,7840.000000,3290.000000,3010.000000,176,35.742188
Thu 1970-01-01 01:00:00 CET,13.0118,834,3197,272,116.760002,447.580017,38.080002,-14,-26,1341,-10.248000,-19.032000,981.612000,106,46,40,7420.000000,3220.000000,2800.000000,177,35.803223
Thu 1970-01-01 01:00:00 CET,14.0132,871,3227,315,121.940002,451.779999,44.099998,-15,-23,1346,-10.980000,-16.836000,985.271973,105,48,41,7350.000000,3360.000000,2870.000000,175,35.681152
Thu 1970-01-01 01:00:00 CET,15.0131,817,3193,286,114.379997,447.019989,40.040001,-15,-23,1347,-10.980000,-16.836000,986.003967,107,52,45,7490.000000,3640.000000,3150.000000,178,35.864258
Thu 1970-01-01 01:00:00 CET,16.0132,838,3178,354,117.320000,444.920013,49.560001,-16,-26,1343,-11.712000,-19.032000,983.075989,117,51,42,8190.000000,3570.000000,2940.000000,178,35.864258
Thu 1970-01-01 01:00:00 CET,17.013,841,3210,320,117.739998,449.399994,44.799999,-29,-31,1346,-21.228001,-22.691999,985.271973,102,56,44,7140.000000,3920.000000,3080.000000,176,35.742188
Thu 1970-01-01 01:00:00 CET,18.0131,818,3178,377,114.520004,444.920013,52.779999,-14,-28,1344,-10.248000,-20.496000,983.807983,108,45,40,7560.000000,3150.000000,2800.000000,177,35.803223
Thu 1970-01-01 01:00:00 CET,19.0143,866,3190,338,121.239998,446.600006,47.320000,-12,-29,1344,-8.784000,-21.228001,983.807983,107,55,42,7490.000000,3850.000000,2940.000000,176,35.742188
Thu 1970-01-01 01:00:00 CET,20.0131,817,3143,320,114.379997,440.019989,44.799999,-19,-23,1342,-13.908000,-16.836000,982.343994,109,48,45,7630.000000,3360.000000,3150.000000,172,35.498047
Thu 1970-01-01 01:00:00 CET,21.0131,842,3241,318,117.879997,453.739990,44.520000,-13,-29,1341,-9.516000,-21.228001,981.612000,111,49,42,7770.000000,3430.000000,2940.000000,173,35.559082
Thu 1970-01-01 01:00:00 CET,22.0132,815,3179,259,114.099998,445.059998,36.259998,-16,-25,1348,-11.712000,-18.299999,986.735962,113,53,39,7910.000000,3710.000000,2730.000000,177,35.803223
Thu 1970-01-01 01:00:00 CET,23.0134,850,3175,300,119.000000,444.500000,42.000000,-15,-28,1346,-10.980000,-20.496000,985.271973,112,49,41,7840.000000,3430.000000,2870.000000,176,35.742188
Thu 1970-01-01 01:00:00 CET,24.0142,890,3169,257,124.599998,443.660004,35.980000,-17,-26,1347,-12.444000,-19.032000,986.003967,108,48,44,7560.000000,3360.000000,3080.000000,174,35.620117
Thu 1970-01-01 01:00:00 CET,25.0128,853,3215,229,119.419998,450.100006,32.060001,-18,-26,1345,-13.176000,-19.032000,984.539978,108,51,44,7560.000000,3570.000000,3080.000000,176,35.742188
Thu 1970-01-01 01:00:00 CET,26.0121,833,3204,223,116.620003,448.559998,31.219999,-15,-27,1343,-10.980000,-19.764000,983.075989,107,52,44,7490.000000,3640.000000,3080.000000,174,35.620117
Thu 1970-01-01 01:00:00 CET,27.0102,794,3209,338,111.160004,449.260010,47.320000,-14,-28,1346,-10.248000,-20.496000,985.271973,105,50,43,7350.000000,3500.000000,3010.000000,173,35.559082
Thu 1970-01-01 01:00:00 CET,28.0144,845,3208,277,118.300003,449.119995,38.779999,-14,-23,1344,-10.248000,-16.836000,983.807983,105,45,42,7350.000000,3150.000000,2940.000000,175,35.681152
Thu 1970-01-01 01:00:00 CET,29.0133,882,3237,334,123.480003,453.179993,46.759998,-19,-26,1339,-13.908000,-19.032000,980.148010,109,45,43,7630.000000,3150.000000,3010.000000,178,35.864258
Thu 1970-01-01 01:00:00 CET,30.0131,891,3241,270,124.739998,453.739990,37.799999,-19,-24,1348,-13.908000,-17.568001,986.735962,109,52,42,7630.000000,3640.000000,2940.000000,177,35.803223
Thu 1970-01-01 01:00:00 CET,31.0132,869,3234,331,121.660004,452.760010,46.340000,-20,-25,1349,-14.639999,-18.299999,987.468018,110,50,39,7700.000000,3500.000000,2730.000000,175,35.681152
Thu 1970-01-01 01:00:00 CET,32.0133,860,3216,248,120.400002,450.239990,34.720001,-18,-22,1346,-13.176000,-16.104000,985.271973,106,51,42,7420.000000,3570.000000,2940.000000,175,35.681152
Thu 1970-01-01 01:00:00 CET,33.0132,827,3208,334,115.779999,449.119995,46.759998,-10,-25,1349,-7.320000,-18.299999,987.468018,106,45,42,7420.000000,3150.000000,2940.000000,175,35.681152
Thu 1970-01-01 01:00:00 CET,34.0134,864,3218,349,120.959999,450.519989,48.860001,-13,-29,1345,-9.516000,-21.228001,984.539978,111,48,37,7770.000000,3360.000000,2590.000000,177,35.803223
Thu 1970-01-01 01:00:00 CET,35.0133,876,3222,306,122.639999,451.080017,42.840000,-10,-23,1345,-7.320000,-16.836000,984.539978,110,50,44,7700.000000,3500.000000,3080.000000,178,35.864258
Thu 1970-01-01 01:00:00 CET,36.0133,831,3183,269,116.340004,445.619995,37.660000,-13,-27,1344,-9.516000,-19.764000,983.807983,109,50,43,7630.000000,3500.000000,3010.000000,177,35.803223
Thu 1970-01-01 01:00:00 CET,37.0131,876,3256,335,122.639999,455.839996,46.900002,-16,-27,1349,-11.712000,-19.764000,987.468018,106,44,44,7420.000000,3080.000000,3080.000000,177,35.803223
Thu 1970-01-01 01:00:00 CET,38.0096,835,3210,313,116.900002,449.399994,43.820000,-16,-34,1344,-11.712000,-24.888000,983.807983,109,49,42,7630.000000,3430.000000,2940.000000,176,35.742188
Thu 1970-01-01 01:00:00 CET,39.0126,827,3206,344,115.779999,448.839996,48.160000,-25,-26,1349,-18.299999,-19.032000,987.468018,111,48,47,7770.000000,3360.000000,3290.000000,177,35.803223
Thu 1970-01-01 01:00:00 CET,40.0137,858,3224,223,120.120003,451.360016,31.219999,-14,-23,1343,-10.248000,-16.836000,983.075989,115,51,46,8050.000000,3570.000000,3220.000000,177,35.803223
Thu 1970-01-01 01:00:00 CET,41.0133,824,3236,347,115.360001,453.040009,48.580002,-18,-29,1344,-13.176000,-21.228001,983.807983,110,47,43,7700.000000,3290.000000,3010.000000,175,35.681152
Thu 1970-01-01 01:00:00 CET,42.0132,818,3256,343,114.520004,455.839996,48.020000,-12,-28,1347,-8.784000,-20.496000,986.003967,111,44,40,7770.000000,3080.000000,2800.000000,175,35.681152
Thu 1970-01-01 01:00:00 CET,43.0133,865,3203,228,121.099998,448.420013,31.920000,-17,-30,1345,-12.444000,-21.959999,984.539978,107,50,43,7490.000000,3500.000000,3010.000000,177,35.803223
Thu 1970-01-01 01:00:00 CET,44.0134,881,3258,291,123.340004,456.119995,40.740002,-10,-31,1344,-7.320000,-22.691999,983.807983,108,50,43,7560.000000,3500.000000,3010.000000,177,35.803223
Thu 1970-01-01 01:00:00 CET,45.0136,847,3216,246,118.580002,450.239990,34.439999,-12,-28,1344,-8.784000,-20.496000,983.807983,111,49,46,7770.000000,3430.000000,3220.000000,175,35.681152
Thu 1970-01-01 01:00:00 CET,46.0145,833,3281,296,116.620003,459.339996,41.439999,-13,-26,1347,-9.516000,-19.032000,986.003967,110,48,41,7700.000000,3360.000000,2870.000000,175,35.681152
Thu 1970-01-01 01:00:00 CET,47.0132,877,3270,304,122.779999,457.799988,42.560001,-16,-24,1346,-11.712000,-17.568001,985.271973,107,45,43,7490.000000,3150.000000,3010.000000,177,35.803223
Thu 1970-01-01 01:00:00 CET,48.0134,905,3217,302,126.699997,450.380005,42.279999,-20,-27,1349,-14.639999,-19.764000,987.468018,107,49,42,7490.000000,3430.000000,2940.000000,175,35.681152
Thu 1970-01-01 01:00:00 CET,49.014,835,3253,292,116.900002,455.420013,40.880001,-20,-34,1347,-14.639999,-24.888000,986.003967,105,51,44,7350.000000,3570.000000,3080.000000,175,35.681152
Thu 1970-01-01 01:00:00 CET,50.0127,862,3250,276,120.680000,455.000000,38.639999,-17,-26,1349,-12.444000,-19.032000,987.468018,110,51,44,7700.000000,3570.000000,3080.000000,177,35.803223
Thu 1970-01-01 01:00:00 CET,51.0098,846,3224,337,118.440002,451.360016,47.180000,-14,-27,1346,-10.248000,-19.764000,985.271973,108,49,46,7560.000000,3430.000000,3220.000000,177,35.803223
Thu 1970-01-01 01:00:00 CET,52.0119,888,3230,285,124.320000,452.200012,39.900002,-16,-25,1347,-11.712000,-18.299999,986.003967,111,48,42,7770.000000,3360.000000,2940.000000,177,35.803223
Thu 1970-01-01 01:00:00 CET,53.0152,875,3264,329,122.500000,456.959991,46.060001,-18,-24,1342,-13.176000,-17.568001,982.343994,108,50,43,7560.000000,3500.000000,3010.000000,173,35.559082
Thu 1970-01-01 01:00:00 CET,54.013,897,3236,346,125.580002,453.040009,48.439999,-11,-29,1348,-8.052000,-21.228001,986.735962,107,51,43,7490.000000,3570.000000,3010.000000,176,35.742188
Thu 1970-01-01 01:00:00 CET,55.0144,860,3222,305,120.400002,451.080017,42.700001,-16,-29,1346,-11.712000,-21.228001,985.271973,108,50,43,7560.000000,3500.000000,3010.000000,174,35.620117
Thu 1970-01-01 01:00:00 CET,56.0134,852,3247,334,119.279999,454.580017,46.759998,-15,-25,1344,-10.980000,-18.299999,983.807983,110,51,43,7700.000000,3570.000000,3010.000000,177,35.803223
Thu 1970-01-01 01:00:00 CET,57.0132,889,3241,309,124.459999,453.739990,43.259998,-15,-27,1351,-10.980000,-19.764000,988.932007,109,50,45,7630.000000,3500.000000,3150.000000,174,35.620117
Thu 1970-01-01 01:00:00 CET,58.0133,867,3241,263,121.379997,453.739990,36.820000,-17,-26,1348,-12.444000,-19.032000,986.735962,108,52,39,7560.000000,3640.000000,2730.000000,176,35.742188
Thu 1970-01-01 01:00:00 CET,59.0134,876,3239,295,122.639999,453.459991,41.299999,-20,-24,1347,-14.639999,-17.568001,986.003967,107,51,41,7490.000000,3570.000000,2870.000000,175,35.681152
Thu 1970-01-01 01:00:00 CET,60.0129,850,3229,339,119.000000,452.059998,47.459999,-18,-29,1344,-13.176000,-21.228001,983.807983,114,49,41,7980.000000,3430.000000,2870.000000,174,35.620117
Thu 1970-01-01 01:00:00 CET,61.013,833,3247,306,116.620003,454.580017,42.840000,-19,-26,1348,-13.908000,-19.032000,986.735962,104,49,42,7280.000000,3430.000000,2940.000000,175,35.681152
Thu 1970-01-01 01:00:00 CET,62.0134,875,3260,342,122.500000,456.399994,47.880001,-13,-27,1348,-9.516000,-19.764000,986.735962,107,47,40,7490.000000,3290.000000,2800.000000,176,35.742188
Time GPS,Mission time,MGT-X raw,MGT-Y raw,MGT-Z raw,MGT-X mgauss,MGT-Y mgauss,MGT-Z mgauss,ACC-X raw,ACC-Y raw,ACC-Z raw,ACC-X mg,ACC-Y mg,ACC-Z mg,GYRO-X raw,GYRO-Y raw,GYRO-Z raw,GYRO-X mdps,GYRO-Y mdps,GYRO-Z mdps,Temp raw,Temp Celsius
Thu 1970-01-01 01:00:00 CET,0,0,0,0,0.000000,0.000000,0.000000,0,0,0,0.000000,0.000000,0.000000,0,0,0,0.000000,0.000000,0.000000,0,0.000000
Thu 1970-01-01 01:00:00 CET,0.0161902,867,3251,351,121.379997,455.140015,49.139999,-19,-26,1345,-13.908000,-19.032000,984.539978,111,50,41,7770.000000,3500.000000,2870.000000,177,35.803223
Thu 1970-01-01 01:00:00 CET,1.01596,874,3230,318,122.360001,452.200012,44.520000,-15,-27,1345,-10.980000,-19.764000,984.539978,104,52,45,7280.000000,3640.000000,3150.000000,178,35.864258
Thu 1970-01-01 01:00:00 CET,2.01486,840,3180,302,117.599998,445.200012,42.279999,-16,-28,1343,-11.712000,-20.496000,983.075989,108,50,43,7560.000000,3500.000000,3010.000000,175,35.681152
Thu 1970-01-01 01:00:00 CET,3.01274,854,3229,239,119.559998,452.059998,33.459999,-11,-31,1346,-8.052000,-22.691999,985.271973,109,45,43,7630.000000,3150.000000,3010.000000,175,35.681152
Thu 1970-01-01 01:00:00 CET,4.01405,898,3203,257,125.720001,448.420013,35.980000,-15,-29,1344,-10.980000,-21.228001,983.807983,110,51,43,7700.000000,3570.000000,3010.000000,175,35.681152
Thu 1970-01-01 01:00:00 CET,5.01405,847,3177,240,118.580002,444.779999,33.599998,-14,-30,1342,-10.248000,-21.959999,982.343994,105,53,43,7350.000000,3710.000000,3010.000000,177,35.803223
Thu 1970-01-01 01:00:00 CET,6.01431,869,3230,361,121.660004,452.200012,50.540001,-16,-26,1342,-11.712000,-19.032000,982.343994,110,46,42,7700.000000,3220.000000,2940.000000,175,35.681152
Thu 1970-01-01 01:00:00 CET,7.0146,850,3234,368,119.000000,452.760010,51.520000,-16,-31,1340,-11.712000,-22.691999,980.880005,108,50,42,7560.000000,3500.000000,2940.000000,178,35.864258
Thu 1970-01-01 01:00:00 CET,8.01482,811,3187,259,113.540001,446.179993,36.259998,-12,-25,1349,-8.784000,-18.299999,987.468018,111,48,46,7770.000000,3360.000000,3220.000000,177,35.803223
Thu 1970-01-01 01:00:00 CET,9.01465,871,3224,322,121.940002,451.360016,45.080002,-17,-24,1347,-12.444000,-17.568001,986.003967,110,50,42,7700.000000,3500.000000,2940.000000,176,35.742188
Thu 1970-01-01 01:00:00 CET,10.017,852,3177,294,119.279999,444.779999,41.160000,-10,-28,1340,-7.320000,-20.496000,980.880005,108,47,42,7560.000000,3290.000000,2940.000000,176,35.742188
Thu 1970-01-01 01:00:00 CET,11.0147,843,3230,327,118.020004,452.200012,45.779999,-18,-30,1344,-13.176000,-21.959999,983.807983,108,51,40,7560.000000,3570.000000,2800.000000,175,35.681152
Thu 1970-01-01 01:00:00 CET,12.015,864,3204,301,120.959999,448.559998,42.139999,-16,-29,1349,-11.712000,-21.228001,987.468018,104,46,40,7280.000000,3220.000000,2800.000000,174,35.620117
Thu 1970-01-01 01:00:00 CET,13.0146,882,3236,341,123.480003,453.040009,47.740002,-18,-29,1351,-13.176000,-21.228001,988.932007,104,48,43,7280.000000,3360.000000,3010.000000,178,35.864258
Thu 1970-01-01 01:00:00 CET,14.0146,916,3192,343,128.240005,446.880005,48.020000,-20,-26,1345,-14.639999,-19.032000,984.539978,107,45,38,7490.000000,3150.000000,2660.000000,176,35.742188
Thu 1970-01-01 01:00:00 CET,15.0155,905,3206,308,126.699997,448.839996,43.119999,-20,-25,1345,-14.639999,-18.299999,984.539978,106,46,45,7420.000000,3220.000000,3150.000000,176,35.742188
Thu 1970-01-01 01:00:00 CET,16.0141,891,3247,352,124.739998,454.580017,49.279999,-17,-28,1344,-12.444000,-20.496000,983.807983,109,49,43,7630.000000,3430.000000,3010.000000,177,35.803223
Thu 1970-01-01 01:00:00 CET,17.0143,870,3195,264,121.800003,447.299988,36.959999,-14,-21,1343,-10.248000,-15.372000,983.075989,108,49,40,7560.000000,3430.000000,2800.000000,177,35.803223
Thu 1970-01-01 01:00:00 CET,18.0143,857,3259,220,119.980003,456.260010,30.799999,-20,-28,1348,-14.639999,-20.496000,986.735962,107,46,41,7490.000000,3220.000000,2870.000000,178,35.864258
Thu 1970-01-01 01:00:00 CET,19.016,900,3262,273,126.000000,456.679993,38.220001,-16,-32,1345,-11.712000,-23.424000,984.539978,110,46,43,7700.000000,3220.000000,3010.000000,174,35.620117
Thu 1970-01-01 01:00:00 CET,20.0153,866,3196,277,121.239998,447.440002,38.779999,-18,-25,1345,-13.176000,-18.299999,984.539978,106,50,41,7420.000000,3500.000000,2870.000000,173,35.559082
Thu 1970-01-01 01:00:00 CET,21.0147,899,3253,346,125.860001,455.420013,48.439999,-15,-29,1350,-10.980000,-21.228001,988.200012,105,45,41,7350.000000,3150.000000,2870.000000,177,35.803223
Thu 1970-01-01 01:00:00 CET,22.0148,887,3219,383,124.180000,450.660004,53.619999,-13,-21,1346,-9.516000,-15.372000,985.271973,106,49,39,7420.000000,3430.000000,2730.000000,174,35.620117
Thu 1970-01-01 01:00:00 CET,23.0149,898,3186,382,125.720001,446.040009,53.480000,-19,-24,1347,-13.908000,-17.568001,986.003967,111,50,43,7770.000000,3500.000000,3010.000000,175,35.681152
Thu 1970-01-01 01:00:00 CET,24.015,915,3243,324,128.100006,454.019989,45.360001,-18,-27,1346,-13.176000,-19.764000,985.271973,106,49,44,7420.000000,3430.000000,3080.000000,176,35.742188
Thu 1970-01-01 01:00:00 CET,25.0145,864,3248,383,120.959999,454.720001,53.619999,-16,-30,1349,-11.712000,-21.959999,987.468018,111,52,44,7770.000000,3640.000000,3080.000000,174,35.620117
Thu 1970-01-01 01:00:00 CET,26.014,871,3192,364,121.940002,446.880005,50.959999,-16,-27,1342,-11.712000,-19.764000,982.343994,109,45,42,7630.000000,3150.000000,2940.000000,176,35.742188
Thu 1970-01-01 01:00:00 CET,27.015,912,3243,296,127.680000,454.019989,41.439999,-14,-32,1346,-10.248000,-23.424000,985.271973,106,48,43,7420.000000,3360.000000,3010.000000,179,35.925293
Thu 1970-01-01 01:00:00 CET,28.0161,917,3177,248,128.380005,444.779999,34.720001,-16,-29,1343,-11.712000,-21.228001,983.075989,107,49,43,7490.000000,3430.000000,3010.000000,175,35.681152
Thu 1970-01-01 01:00:00 CET,29.0142,897,3217,332,125.580002,450.380005,46.480000,-18,-28,1345,-13.176000,-20.496000,984.539978,111,47,44,7770.000000,3290.000000,3080.000000,175,35.681152
Thu 1970-01-01 01:00:00 CET,30.0135,894,3203,359,125.160004,448.420013,50.259998,-16,-32,1350,-11.712000,-23.424000,988.200012,108,54,43,7560.000000,3780.000000,3010.000000,179,35.925293
Thu 1970-01-01 01:00:00 CET,31.0127,868,3253,387,121.520004,455.420013,54.180000,-11,-27,1347,-8.052000,-19.764000,986.003967,106,52,41,7420.000000,3640.000000,2870.000000,177,35.803223
Thu 1970-01-01 01:00:00 CET,32.0148,917,3251,395,128.380005,455.140015,55.299999,-16,-28,1343,-11.712000,-20.496000,983.075989,107,47,41,7490.000000,3290.000000,2870.000000,176,35.742188
Thu 1970-01-01 01:00:00 CET,33.0159,879,3202,341,123.059998,448.279999,47.740002,-13,-28,1345,-9.516000,-20.496000,984.539978,109,47,41,7630.000000,3290.000000,2870.000000,176,35.742188
Thu 1970-01-01 01:00:00 CET,34.0152,886,3212,343,124.040001,449.679993,48.020000,-16,-28,1351,-11.712000,-20.496000,988.932007,108,50,43,7560.000000,3500.000000,3010.000000,177,35.803223
Thu 1970-01-01 01:00:00 CET,35.0145,888,3224,407,124.320000,451.360016,56.980000,-20,-27,1346,-14.639999,-19.764000,985.271973,111,52,45,7770.000000,3640.000000,3150.000000,176,35.742188
Thu 1970-01-01 01:00:00 CET,36.0149,799,3232,368,111.860001,452.480011,51.520000,-14,-26,1356,-10.248000,-19.032000,992.591980,113,49,45,7910.000000,3430.000000,3150.000000,177,35.803223
Thu 1970-01-01 01:00:00 CET,37.0158,862,3206,356,120.680000,448.839996,49.840000,-19,-26,1347,-13.908000,-19.032000,986.003967,102,49,43,7140.000000,3430.000000,3010.000000,175,35.681152
Thu 1970-01-01 01:00:00 CET,38.0149,865,3199,367,121.099998,447.860016,51.380001,-17,-25,1341,-12.444000,-18.299999,981.612000,110,52,40,7700.000000,3640.000000,2800.000000,175,35.681152
Thu 1970-01-01 01:00:00 CET,39.0143,884,3195,318,123.760002,447.299988,44.520000,-16,-27,1345,-11.712000,-19.764000,984.539978,108,49,44,7560.000000,3430.000000,3080.000000,176,35.742188
Thu 1970-01-01 01:00:00 CET,40.0152,865,3170,364,121.099998,443.799988,50.959999,-15,-27,1344,-10.980000,-19.764000,983.807983,109,48,44,7630.000000,3360.000000,3080.000000,174,35.620117
Thu 1970-01-01 01:00:00 CET,41.0147,864,3215,314,120.959999,450.100006,43.959999,-16,-25,1345,-11.712000,-18.299999,984.539978,106,50,42,7420.000000,3500.000000,2940.000000,177,35.803223
Thu 1970-01-01 01:00:00 CET,42.0126,834,3224,281,116.760002,451.360016,39.340000,-15,-26,1344,-10.980000,-19.032000,983.807983,111,49,38,7770.000000,3430.000000,2660.000000,175,35.681152
Thu 1970-01-01 01:00:00 CET,43.0138,819,3258,358,114.660004,456.119995,50.119999,-19,-23,1345,-13.908000,-16.836000,984.539978,103,49,41,7210.000000,3430.000000,2870.000000,174,35.620117
Thu 1970-01-01 01:00:00 CET,44.0148,886,3209,344,124.040001,449.260010,48.160000,-15,-30,1347,-10.980000,-21.959999,986.003967,105,50,41,7350.000000,3500.000000,2870.000000,175,35.681152
Time GPS,Mission time,MGT-X raw,MGT-Y raw,MGT-Z raw,MGT-X mgauss,MGT-Y mgauss,MGT-Z mgauss,ACC-X raw,ACC-Y raw,ACC-Z raw,ACC-X mg,ACC-Y mg,ACC-Z mg,GYRO-X raw,GYRO-Y raw,GYRO-Z raw,GYRO-X mdps,GYRO-Y mdps,GYRO-Z mdps,Temp raw,Temp Celsius
Thu 1970-01-01 01:00:00 CET,0,0,0,0,0.000000,0.000000,0.000000,0,0,0,0.000000,0.000000,0.000000,0,0,0,0.000000,0.000000,0.000000,0,0.000000
Thu 1970-01-01 01:00:00 CET,0.0178408,829,3158,303,116.059998,442.119995,42.420002,-20,-26,1340,-14.639999,-19.032000,980.880005,109,49,44,7630.000000,3430.000000,3080.000000,176,35.742188
Thu 1970-01-01 01:00:00 CET,1.01685,877,3207,329,122.779999,448.980011,46.060001,-12,-29,1350,-8.784000,-21.228001,988.200012,111,45,40,7770.000000,3150.000000,2800.000000,177,35.803223
Thu 1970-01-01 01:00:00 CET,2.01668,856,3241,352,119.840004,453.739990,49.279999,-16,-29,1347,-11.712000,-21.228001,986.003967,105,49,41,7350.000000,3430.000000,2870.000000,177,35.803223
Thu 1970-01-01 01:00:00 CET,3.01657,854,3251,400,119.559998,455.140015,56.000000,-10,-30,1348,-7.320000,-21.959999,986.735962,108,49,43,7560.000000,3430.000000,3010.000000,176,35.742188
Thu 1970-01-01 01:00:00 CET,4.01679,875,3262,323,122.500000,456.679993,45.220001,-17,-30,1345,-12.444000,-21.959999,984.539978,109,49,42,7630.000000,3430.000000,2940.000000,181,36.047363
Thu 1970-01-01 01:00:00 CET,5.0166,885,3243,394,123.900002,454.019989,55.160000,-16,-29,1347,-11.712000,-21.228001,986.003967,106,50,40,7420.000000,3500.000000,2800.000000,176,35.742188
Thu 1970-01-01 01:00:00 CET,6.01479,868,3188,344,121.520004,446.320007,48.160000,-20,-26,1349,-14.639999,-19.032000,987.468018,105,52,40,7350.000000,3640.000000,2800.000000,179,35.925293
Thu 1970-01-01 01:00:00 CET,7.0149,846,3233,307,118.440002,452.619995,42.980000,-14,-19,1345,-10.248000,-13.908000,984.539978,112,49,44,7840.000000,3430.000000,3080.000000,176,35.742188
Thu 1970-01-01 01:00:00 CET,8.01673,839,3213,300,117.459999,449.820007,42.000000,-17,-24,1342,-12.444000,-17.568001,982.343994,110,49,44,7700.000000,3430.000000,3080.000000,176,35.742188
Thu 1970-01-01 01:00:00 CET,9.0165,861,3203,346,120.540001,448.420013,48.439999,-10,-30,1351,-7.320000,-21.959999,988.932007,112,54,43,7840.000000,3780.000000,3010.000000,178,35.864258
Thu 1970-01-01 01:00:00 CET,10.018,878,3247,376,122.919998,454.580017,52.639999,-15,-27,1346,-10.980000,-19.764000,985.271973,105,53,45,7350.000000,3710.000000,3150.000000,178,35.864258
Thu 1970-01-01 01:00:00 CET,11.0166,855,3242,378,119.699997,453.880005,52.920002,-15,-29,1343,-10.980000,-21.228001,983.075989,109,52,44,7630.000000,3640.000000,3080.000000,176,35.742188
Thu 1970-01-01 01:00:00 CET,12.0167,883,3196,319,123.620003,447.440002,44.660000,-16,-28,1347,-11.712000,-20.496000,986.003967,108,55,43,7560.000000,3850.000000,3010.000000,177,35.803223
Thu 1970-01-01 01:00:00 CET,13.0168,874,3196,299,122.360001,447.440002,41.860001,-21,-28,1346,-15.372000,-20.496000,985.271973,106,46,43,7420.000000,3220.000000,3010.000000,177,35.803223
Thu 1970-01-01 01:00:00 CET,14.0169,835,3223,346,116.900002,451.220001,48.439999,-15,-30,1346,-10.980000,-21.959999,985.271973,105,52,43,7350.000000,3640.000000,3010.000000,176,35.742188
Thu 1970-01-01 01:00:00 CET,15.0166,848,3192,365,118.720001,446.880005,51.099998,-16,-27,1345,-11.712000,-19.764000,984.539978,114,51,45,7980.000000,3570.000000,3150.000000,177,35.803223
Thu 1970-01-01 01:00:00 CET,16.0189,852,3240,324,119.279999,453.600006,45.360001,-19,-28,1343,-13.908000,-20.496000,983.075989,109,48,39,7630.000000,3360.000000,2730.000000,179,35.925293
Thu 1970-01-01 01:00:00 CET,17.0165,878,3223,272,122.919998,451.220001,38.080002,-15,-27,1340,-10.980000,-19.764000,980.880005,104,48,39,7280.000000,3360.000000,2730.000000,177,35.803223
Thu 1970-01-01 01:00:00 CET,18.0161,899,3227,392,125.860001,451.779999,54.880001,-17,-29,1347,-12.444000,-21.228001,986.003967,110,49,43,7700.000000,3430.000000,3010.000000,178,35.864258
Thu 1970-01-01 01:00:00 CET,19.0172,855,3230,347,119.699997,452.200012,48.580002,-17,-28,1349,-12.444000,-20.496000,987.468018,104,44,43,7280.000000,3080.000000,3010.000000,178,35.864258
Thu 1970-01-01 01:00:00 CET,20.0161,863,3178,227,120.820000,444.920013,31.780001,-15,-25,1345,-10.980000,-18.299999,984.539978,107,50,43,7490.000000,3500.000000,3010.000000,175,35.681152
Thu 1970-01-01 01:00:00 CET,21.0164,908,3172,353,127.120003,444.080017,49.420002,-13,-26,1345,-9.516000,-19.032000,984.539978,105,54,42,7350.000000,3780.000000,2940.000000,175,35.681152
Thu 1970-01-01 01:00:00 CET,22.0166,879,3254,414,123.059998,455.559998,57.959999,-17,-28,1341,-12.444000,-20.496000,981.612000,106,52,45,7420.000000,3640.000000,3150.000000,176,35.742188
Thu 1970-01-01 01:00:00 CET,23.0165,906,3206,311,126.840004,448.839996,43.540001,-13,-22,1348,-9.516000,-16.104000,986.735962,110,51,44,7700.000000,3570.000000,3080.000000,179,35.925293
Thu 1970-01-01 01:00:00 CET,24.0165,850,3239,346,119.000000,453.459991,48.439999,-12,-30,1347,-8.784000,-21.959999,986.003967,113,49,42,7910.000000,3430.000000,2940.000000,177,35.803223
Thu 1970-01-01 01:00:00 CET,25.0166,885,3238,334,123.900002,453.320007,46.759998,-15,-34,1347,-10.980000,-24.888000,986.003967,107,53,43,7490.000000,3710.000000,3010.000000,176,35.742188
Thu 1970-01-01 01:00:00 CET,26.0165,878,3194,309,122.919998,447.160004,43.259998,-20,-34,1346,-14.639999,-24.888000,985.271973,115,50,41,8050.000000,3500.000000,2870.000000,176,35.742188
Thu 1970-01-01 01:00:00 CET,27.0165,878,3226,345,122.919998,451.640015,48.299999,-17,-25,1346,-12.444000,-18.299999,985.271973,104,48,41,7280.000000,3360.000000,2870.000000,176,35.742188
Thu 1970-01-01 01:00:00 CET,28.0176,851,3266,373,119.139999,457.239990,52.220001,-13,-28,1346,-9.516000,-20.496000,985.271973,112,47,40,7840.000000,3290.000000,2800.000000,174,35.620117
Thu 1970-01-01 01:00:00 CET,29.0164,917,3222,304,128.380005,451.080017,42.560001,-13,-26,1344,-9.516000,-19.032000,983.807983,108,49,41,7560.000000,3430.000000,2870.000000,177,35.803223
Thu 1970-01-01 01:00:00 CET,30.0166,910,3233,365,127.400002,452.619995,51.099998,-15,-26,1346,-10.980000,-19.032000,985.271973,108,50,41,7560.000000,3500.000000,2870.000000,179,35.925293
Thu 1970-01-01 01:00:00 CET,31.0132,867,3208,303,121.379997,449.119995,42.420002,-16,-30,1347,-11.712000,-21.959999,986.003967,107,50,43,7490.000000,3500.000000,3010.000000,175,35.681152
Thu 1970-01-01 01:00:00 CET,32.0149,887,3200,331,124.180000,448.000000,46.340000,-12,-32,1346,-8.784000,-23.424000,985.271973,107,50,47,7490.000000,3500.000000,3290.000000,179,35.925293
Thu 1970-01-01 01:00:00 CET,33.0155,885,3238,304,123.900002,453.320007,42.560001,-13,-28,1346,-9.516000,-20.496000,985.271973,109,53,45,7630.000000,3710.000000,3150.000000,179,35.925293
Thu 1970-01-01 01:00:00 CET,34.0167,848,3192,310,118.720001,446.880005,43.400002,-17,-24,1347,-12.444000,-17.568001,986.003967,106,53,41,7420.000000,3710.000000,2870.000000,178,35.864258
Thu 1970-01-01 01:00:00 CET,35.0171,835,3195,259,116.900002,447.299988,36.259998,-15,-32,1346,-10.980000,-23.424000,985.271973,111,54,42,7770.000000,3780.000000,2940.000000,178,35.864258
Thu 1970-01-01 01:00:00 CET,36.0171,825,3179,287,115.500000,445.059998,40.180000,-15,-30,1349,-10.980000,-21.959999,987.468018,115,46,42,8050.000000,3220.000000,2940.000000,178,35.864258
Thu 1970-01-01 01:00:00 CET,37.0182,872,3193,290,122.080002,447.019989,40.599998,-17,-30,1349,-12.444000,-21.959999,987.468018,110,51,42,7700.000000,3570.000000,2940.000000,177,35.803223
Thu 1970-01-01 01:00:00 CET,38.0171,880,3192,337,123.199997,446.880005,47.180000,-15,-29,1348,-10.980000,-21.228001,986.735962,108,49,41,7560.000000,3430.000000,2870.000000,176,35.742188
Thu 1970-01-01 01:00:00 CET,39.017,835,3266,229,116.900002,457.239990,32.060001,-19,-30,1344,-13.908000,-21.959999,983.807983,112,50,40,7840.000000,3500.000000,2800.000000,177,35.803223
Thu 1970-01-01 01:00:00 CET,40.0168,889,3296,295,124.459999,461.440002,41.299999,-13,-24,1345,-9.516000,-17.568001,984.539978,108,50,41,7560.000000,3500.000000,2870.000000,178,35.864258
Thu 1970-01-01 01:00:00 CET,41.0168,828,3272,297,115.919998,458.080017,41.580002,-14,-29,1347,-10.248000,-21.228001,986.003967,106,49,44,7420.000000,3430.000000,3080.000000,176,35.742188
Thu 1970-01-01 01:00:00 CET,42.0169,859,3262,248,120.260002,456.679993,34.720001,-14,-30,1345,-10.248000,-21.959999,984.539978,109,52,41,7630.000000,3640.000000,2870.000000,177,35.803223
Thu 1970-01-01 01:00:00 CET,43.0166,861,3206,330,120.540001,448.839996,46.200001,-17,-33,1347,-12.444000,-24.156000,986.003967,111,50,45,7770.000000,3500.000000,3150.000000,174,35.620117
Thu 1970-01-01 01:00:00 CET,44.0161,846,3240,219,118.440002,453.600006,30.660000,-19,-26,1346,-13.908000,-19.032000,985.271973,115,49,41,8050.000000,3430.000000,2870.000000,181,36.047363
Thu 1970-01-01 01:00:00 CET,45.0163,879,3234,345,123.059998,452.760010,48.299999,-20,-29,1348,-14.639999,-21.228001,986.735962,109,47,41,7630.000000,3290.000000,2870.000000,178,35.864258
Thu 1970-01-01 01:00:00 CET,46.014,870,3222,303,121.800003,451.080017,42.420002,-19,-21,1347,-13.908000,-15.372000,986.003967,109,52,42,7630.000000,3640.000000,2940.000000,178,35.864258
Thu 1970-01-01 01:00:00 CET,47.0166,848,3212,270,118.720001,449.679993,37.799999,-18,-31,1344,-13.176000,-22.691999,983.807983,109,51,43,7630.000000,3570.000000,3010.000000,176,35.742188
Thu 1970-01-01 01:00:00 CET,48.0166,882,3245,238,123.480003,454.299988,33.320000,-18,-31,1346,-13.176000,-22.691999,985.271973,107,48,42,7490.000000,3360.000000,2940.000000,177,35.803223
Thu 1970-01-01 01:00:00 CET,49.017,835,3237,315,116.900002,453.179993,44.099998,-17,-29,1347,-12.444000,-21.228001,986.003967,110,50,43,7700.000000,3500.000000,3010.000000,175,35.681152
Thu 1970-01-01 01:00:00 CET,50.0165,857,3224,275,119.980003,451.360016,38.500000,-16,-29,1345,-11.712000,-21.228001,984.539978,105,51,40,7350.000000,3570.000000,2800.000000,175,35.681152
Thu 1970-01-01 01:00:00 CET,51.0167,857,3209,268,119.980003,449.260010,37.520000,-14,-26,1342,-10.248000,-19.032000,982.343994,110,46,42,7700.000000,3220.000000,2940.000000,176,35.742188
Thu 1970-01-01 01:00:00 CET,52.0167,854,3216,270,119.559998,450.239990,37.799999,-15,-29,1348,-10.980000,-21.228001,986.735962,114,53,47,7980.000000,3710.000000,3290.000000,175,35.681152
Thu 1970-01-01 01:00:00 CET,53.0167,806,3244,244,112.840004,454.160004,34.160000,-16,-27,1349,-11.712000,-19.764000,987.468018,110,49,43,7700.000000,3430.000000,3010.000000,175,35.681152
Thu 1970-01-01 01:00:00 CET,54.0167,850,3225,360,119.000000,451.500000,50.400002,-15,-28,1347,-10.980000,-20.496000,986.003967,106,51,42,7420.000000,3570.000000,2940.000000,178,35.864258
Thu 1970-01-01 01:00:00 CET,55.0178,875,3214,353,122.500000,449.959991,49.420002,-15,-30,1347,-10.980000,-21.959999,986.003967,107,50,42,7490.000000,3500.000000,2940.000000,179,35.925293
Thu 1970-01-01 01:00:00 CET,56.0165,841,3203,255,117.739998,448.420013,35.700001,-20,-29,1348,-14.639999,-21.228001,986.735962,109,48,39,7630.000000,3360.000000,2730.000000,176,35.742188
Thu 1970-01-01 01:00:00 CET,57.016,883,3209,342,123.620003,449.260010,47.880001,-15,-28,1348,-10.980000,-20.496000,986.735962,111,49,44,7770.000000,3430.000000,3080.000000,179,35.925293
Thu 1970-01-01 01:00:00 CET,58.0136,860,3174,258,120.400002,444.360016,36.119999,-20,-22,1349,-14.639999,-16.104000,987.468018,110,52,39,7700.000000,3640.000000,2730.000000,176,35.742188
Thu 1970-01-01 01:00:00 CET,59.017,849,3234,250,118.860001,452.760010,35.000000,-15,-27,1344,-10.980000,-19.764000,983.807983,107,52,41,7490.000000,3640.000000,2870.000000,175,35.681152
Thu 1970-01-01 01:00:00 CET,60.017,889,3258,300,124.459999,456.119995,42.000000,-17,-34,1342,-12.444000,-24.888000,982.343994,105,48,40,7350.000000,3360.000000,2800.000000,179,35.925293
Thu 1970-01-01 01:00:00 CET,61.0171,889,3211,292,124.459999,449.540009,40.880001,-21,-27,1344,-15.372000,-19.764000,983.807983,110,49,40,7700.000000,3430.000000,2800.000000,177,35.803223
Thu 1970-01-01 01:00:00 CET,62.0179,825,3237,301,115.500000,453.179993,42.139999,-17,-24,1343,-12.444000,-17.568001,983.075989,114,49,43,7980.000000,3430.000000,3010.000000,177,35.803223
Thu 1970-01-01 01:00:00 CET,63.0171,852,3210,291,119.279999,449.399994,40.740002,-20,-31,1343,-14.639999,-22.691999,983.075989,106,49,44,7420.000000,3430.000000,3080.000000,178,35.864258
Thu 1970-01-01 01:00:00 CET,64.0181,869,3253,298,121.660004,455.420013,41.720001,-15,-34,1345,-10.980000,-24.888000,984.539978,105,50,41,7350.000000,3500.000000,2870.000000,176,35.742188
Thu 1970-01-01 01:00:00 CET,65.0171,874,3254,271,122.360001,455.559998,37.939999,-18,-25,1347,-13.176000,-18.299999,986.003967,110,50,42,7700.000000,3500.000000,2940.000000,179,35.925293
Thu 1970-01-01 01:00:00 CET,66.0171,884,3184,217,123.760002,445.760010,30.380001,-14,-28,1343,-10.248000,-20.496000,983.075989,106,48,45,7420.000000,3360.000000,3150.000000,176,35.742188
Thu 1970-01-01 01:00:00 CET,67.0169,891,3249,346,124.739998,454.860016,48.439999,-17,-30,1346,-12.444000,-21.959999,985.271973,109,50,41,7630.000000,3500.000000,2870.000000,178,35.864258
Thu 1970-01-01 01:00:00 CET,68.0169,914,3241,358,127.959999,453.739990,50.119999,-17,-30,1348,-12.444000,-21.959999,986.735962,105,50,39,7350.000000,3500.000000,2730.000000,175,35.681152
Thu 1970-01-01 01:00:00 CET,69.0165,906,3238,279,126.840004,453.320007,39.060001,-14,-24,1345,-10.248000,-17.568001,984.539978,108,51,40,7560.000000,3570.000000,2800.000000,178,35.864258
Thu 1970-01-01 01:00:00 CET,70.0149,916,3286,253,128.240005,460.040009,35.420002,-19,-32,1349,-13.908000,-23.424000,987.468018,111,51,41,7770.000000,3570.000000,2870.000000,176,35.742188
Thu 1970-01-01 01:00:00 CET,71.0162,802,3244,256,112.279999,454.160004,35.840000,-18,-27,1348,-13.176000,-19.764000,986.735962,108,42,41,7560.000000,2940.000000,2870.000000,178,35.864258
Thu 1970-01-01 01:00:00 CET,72.0166,907,3239,242,126.980003,453.459991,33.880001,-14,-29,1347,-10.248000,-21.228001,986.003967,107,48,39,7490.000000,3360.000000,2730.000000,178,35.864258
Thu 1970-01-01 01:00:00 CET,73.0177,872,3221,244,122.080002,450.940002,34.160000,-15,-31,1351,-10.980000,-22.691999,988.932007,102,45,41,7140.000000,3150.000000,2870.000000,178,35.864258
Thu 1970-01-01 01:00:00 CET,74.0164,869,3202,261,121.660004,448.279999,36.540001,-16,-31,1348,-11.712000,-22.691999,986.735962,112,52,42,7840.000000,3640.000000,2940.000000,177,35.803223
Thu 1970-01-01 01:00:00 CET,75.0165,864,3214,299,120.959999,449.959991,41.860001,-17,-31,1343,-12.444000,-22.691999,983.075989,107,49,44,7490.000000,3430.000000,3080.000000,178,35.864258
Thu 1970-01-01 01:00:00 CET,76.0165,877,3237,320,122.779999,453.179993,44.799999,-12,-30,1349,-8.784000,-21.959999,987.468018,106,48,41,7420.000000,3360.000000,2870.000000,180,35.986328
Thu 1970-01-01 01:00:00 CET,77.0165,884,3169,296,123.760002,443.660004,41.439999,-17,-29,1342,-12.444000,-21.228001,982.343994,107,51,45,7490.000000,3570.000000,3150.000000,179,35.925293
Thu 1970-01-01 01:00:00 CET,78.0165,854,3177,331,119.559998,444.779999,46.340000,-17,-24,1345,-12.444000,-17.568001,984.539978,108,49,40,7560.000000,3430.000000,2800.000000,177,35.803223
Thu 1970-01-01 01:00:00 CET,79.0172,867,3208,257,121.379997,449.119995,35.980000,-18,-26,1336,-13.176000,-19.032000,977.951965,111,50,45,7770.000000,3500.000000,3150.000000,178,35.864258
Thu 1970-01-01 01:00:00 CET,80.0175,869,3215,287,121.660004,450.100006,40.180000,-15,-27,1342,-10.980000,-19.764000,982.343994,113,49,38,7910.000000,3430.000000,2660.000000,177,35.803223
Thu 1970-01-01 01:00:00 CET,81.0173,890,3212,285,124.599998,449.679993,39.900002,-14,-27,1347,-10.248000,-19.764000,986.003967,109,50,42,7630.000000,3500.000000,2940.000000,178,35.864258
Thu 1970-01-01 01:00:00 CET,82.0173,865,3224,300,121.099998,451.360016,42.000000,-19,-27,1347,-13.908000,-19.764000,986.003967,104,49,44,7280.000000,3430.000000,3080.000000,175,35.681152
Thu 1970-01-01 01:00:00 CET,83.0164,882,3189,242,123.480003,446.459991,33.880001,-17,-28,1348,-12.444000,-20.496000,986.735962,112,50,41,7840.000000,3500.000000,2870.000000,175,35.681152
Thu 1970-01-01 01:00:00 CET,84.0165,841,3207,204,117.739998,448.980011,28.559999,-16,-26,1344,-11.712000,-19.032000,983.807983,108,51,43,7560.000000,3570.000000,3010.000000,178,35.864258
Thu 1970-01-01 01:00:00 CET,85.0166,915,3200,279,128.100006,448.000000,39.060001,-17,-27,1340,-12.444000,-19.764000,980.880005,107,47,39,7490.000000,3290.000000,2730.000000,179,35.925293
Thu 1970-01-01 01:00:00 CET,86.0165,891,3206,324,124.739998,448.839996,45.360001,-16,-23,1350,-11.712000,-16.836000,988.200012,112,48,37,7840.000000,3360.000000,2590.000000,174,35.620117
Thu 1970-01-01 01:00:00 CET,87.017,863,3224,268,120.820000,451.360016,37.520000,-16,-26,1344,-11.712000,-19.032000,983.807983,104,50,44,7280.000000,3500.000000,3080.000000,178,35.864258
Thu 1970-01-01 01:00:00 CET,88.0174,899,3191,241,125.860001,446.739990,33.740002,-18,-28,1341,-13.176000,-20.496000,981.612000,110,46,42,7700.000000,3220.000000,2940.000000,177,35.803223
Thu 1970-01-01 01:00:00 CET,89.0171,890,3188,264,124.599998,446.320007,36.959999,-16,-25,1345,-11.712000,-18.299999,984.539978,114,47,39,7980.000000,3290.000000,2730.000000,177,35.803223
Thu 1970-01-01 01:00:00 CET,90.0172,889,3229,333,124.459999,452.059998,46.619999,-15,-25,1345,-10.980000,-18.299999,984.539978,110,50,43,7700.000000,3500.000000,3010.000000,176,35.742188
Thu 1970-01-01 01:00:00 CET,91.0185,912,3181,242,127.680000,445.339996,33.880001,-16,-28,1344,-11.712000,-20.496000,983.807983,101,50,41,7070.000000,3500.000000,2870.000000,177,35.803223
Thu 1970-01-01 01:00:00 CET,92.017,891,3243,319,124.739998,454.019989,44.660000,-17,-28,1345,-12.444000,-20.496000,984.539978,114,46,41,7980.000000,3220.000000,2870.000000,176,35.742188
Thu 1970-01-01 01:00:00 CET,93.0171,853,3192,305,119.419998,446.880005,42.700001,-16,-24,1344,-11.712000,-17.568001,983.807983,108,55,44,7560.000000,3850.000000,3080.000000,176,35.742188
Thu 1970-01-01 01:00:00 CET,94.0172,861,3196,258,120.540001,447.440002,36.119999,-19,-27,1347,-13.908000,-19.764000,986.003967,108,49,40,7560.000000,3430.000000,2800.000000,176,35.742188
Thu 1970-01-01 01:00:00 CET,95.015,903,3217,268,126.419998,450.380005,37.520000,-15,-25,1343,-10.980000,-18.299999,983.075989,107,45,40,7490.000000,3150.000000,2800.000000,175,35.681152
Thu 1970-01-01 01:00:00 CET,96.0154,860,3210,278,120.400002,449.399994,38.920002,-16,-22,1342,-11.712000,-16.104000,982.343994,110,50,41,7700.000000,3500.000000,2870.000000,176,35.742188
Thu 1970-01-01 01:00:00 CET,97.0149,899,3218,265,125.860001,450.519989,37.099998,-17,-29,1344,-12.444000,-21.228001,983.807983,114,49,43,7980.000000,3430.000000,3010.000000,177,35.803223
Thu 1970-01-01 01:00:00 CET,98.0173,859,3199,297,120.260002,447.860016,41.580002,-18,-30,1345,-13.176000,-21.959999,984.539978,110,54,43,7700.000000,3780.000000,3010.000000,177,35.803223
Thu 1970-01-01 01:00:00 CET,99.0173,831,3189,226,116.340004,446.459991,31.639999,-17,-30,1347,-12.444000,-21.959999,986.003967,110,50,41,7700.000000,3500.000000,2870.000000,177,35.803223
Thu 1970-01-01 01:00:00 CET,100.019,840,3195,304,117.599998,447.299988,42.560001,-12,-30,1343,-8.784000,-21.959999,983.075989,104,52,43,7280.000000,3640.000000,3010.000000,175,35.681152
Thu 1970-01-01 01:00:00 CET,101.017,860,3199,344,120.400002,447.860016,48.160000,-15,-15,1346,-10.980000,-10.980000,985.271973,104,47,40,7280.000000,3290.000000,2800.000000,176,35.742188
Thu 1970-01-01 01:00:00 CET,102.017,889,3247,416,124.459999,454.580017,58.240002,-15,-26,1345,-10.980000,-19.032000,984.539978,105,51,42,7350.000000,3570.000000,2940.000000,179,35.925293
Thu 1970-01-01 01:00:00 CET,103.017,850,3164,341,119.000000,442.959991,47.740002,-16,-26,1344,-11.712000,-19.032000,983.807983,106,51,40,7420.000000,3570.000000,2800.000000,179,35.925293
Thu 1970-01-01 01:00:00 CET,104.017,860,3177,284,120.400002,444.779999,39.759998,-16,-26,1345,-11.712000,-19.032000,984.539978,110,48,44,7700.000000,3360.000000,3080.000000,176,35.742188
Thu 1970-01-01 01:00:00 CET,105.017,868,3170,315,121.520004,443.799988,44.099998,-14,-29,1344,-10.248000,-21.228001,983.807983,114,49,41,7980.000000,3430.000000,2870.000000,177,35.803223
Thu 1970-01-01 01:00:00 CET,106.017,865,3231,299,121.099998,452.339996,41.860001,-27,-16,1348,-19.764000,-11.712000,986.735962,112,49,43,7840.000000,3430.000000,3010.000000,180,35.986328
Thu 1970-01-01 01:00:00 CET,107.017,886,3220,339,124.040001,450.799988,47.459999,-12,-33,1347,-8.784000,-24.156000,986.003967,110,47,40,7700.000000,3290.000000,2800.000000,177,35.803223
Thu 1970-01-01 01:00:00 CET,108.015,896,3191,345,125.440002,446.739990,48.299999,-13,-26,1348,-9.516000,-19.032000,986.735962,109,49,43,7630.000000,3430.000000,3010.000000,174,35.620117
Thu 1970-01-01 01:00:00 CET,109.018,887,3214,313,124.180000,449.959991,43.820000,-14,-28,1344,-10.248000,-20.496000,983.807983,108,50,47,7560.000000,3500.000000,3290.000000,180,35.986328
Thu 1970-01-01 01:00:00 CET,110.016,933,3203,360,130.619995,448.420013,50.400002,-14,-24,1346,-10.248000,-17.568001,985.271973,113,51,42,7910.000000,3570.000000,2940.000000,178,35.864258
Thu 1970-01-01 01:00:00 CET,111.017,869,3247,346,121.660004,454.580017,48.439999,-20,-26,1341,-14.639999,-19.032000,981.612000,109,51,43,7630.000000,3570.000000,3010.000000,174,35.620117
Thu 1970-01-01 01:00:00 CET,112.017,885,3181,295,123.900002,445.339996,41.299999,-16,-32,1346,-11.712000,-23.424000,985.271973,110,50,42,7700.000000,3500.000000,2940.000000,179,35.925293
Thu 1970-01-01 01:00:00 CET,113.017,886,3214,224,124.040001,449.959991,31.360001,-18,-29,1344,-13.176000,-21.228001,983.807983,108,50,39,7560.000000,3500.000000,2730.000000,176,35.742188
Thu 1970-01-01 01:00:00 CET,114.017,892,3234,388,124.879997,452.760010,54.320000,-21,-26,1342,-15.372000,-19.032000,982.343994,108,49,39,7560.000000,3430.000000,2730.000000,177,35.803223
Thu 1970-01-01 01:00:00 CET,115.017,836,3251,318,117.040001,455.140015,44.520000,-20,-28,1341,-14.639999,-20.496000,981.612000,108,46,43,7560.000000,3220.000000,3010.000000,178,35.864258
Thu 1970-01-01 01:00:00 CET,116.017,841,3222,373,117.739998,451.080017,52.220001,-22,-30,1345,-16.104000,-21.959999,984.539978,106,53,40,7420.000000,3710.000000,2800.000000,181,36.047363
Thu 1970-01-01 01:00:00 CET,117.017,910,3184,348,127.400002,445.760010,48.720001,-15,-29,1348,-10.980000,-21.228001,986.735962,113,44,47,7910.000000,3080.000000,3290.000000,175,35.681152
Thu 1970-01-01 01:00:00 CET,118.018,908,3242,315,127.120003,453.880005,44.099998,-18,-25,1341,-13.176000,-18.299999,981.612000,111,51,44,7770.000000,3570.000000,3080.000000,179,35.925293
Thu 1970-01-01 01:00:00 CET,119.017,883,3228,342,123.620003,451.920013,47.880001,-18,-29,1346,-13.176000,-21.228001,985.271973,114,52,40,7980.000000,3640.000000,2800.000000,178,35.864258
Thu 1970-01-01 01:00:00 CET,120.017,854,3233,265,119.559998,452.619995,37.099998,-16,-22,1345,-11.712000,-16.104000,984.539978,108,47,44,7560.000000,3290.000000,3080.000000,178,35.864258
Thu 1970-01-01 01:00:00 CET,121.016,832,3223,377,116.480003,451.220001,52.779999,-16,-30,1345,-11.712000,-21.959999,984.539978,105,48,41,7350.000000,3360.000000,2870.000000,178,35.864258
Thu 1970-01-01 01:00:00 CET,122.016,887,3231,304,124.180000,452.339996,42.560001,-20,-30,1347,-14.639999,-21.959999,986.003967,105,50,43,7350.000000,3500.000000,3010.000000,179,35.925293
Thu 1970-01-01 01:00:00 CET,123.017,839,3203,329,117.459999,448.420013,46.060001,-15,-28,1346,-10.980000,-20.496000,985.271973,105,48,41,7350.000000,3360.000000,2870.000000,177,35.803223
Thu 1970-01-01 01:00:00 CET,124.017,872,3224,321,122.080002,451.360016,44.939999,-13,-34,1347,-9.516000,-24.888000,986.003967,111,46,41,7770.000000,3220.000000,2870.000000,178,35.864258
Thu 1970-01-01 01:00:00 CET,125.017,860,3217,267,120.400002,450.380005,37.380001,-18,-33,1345,-13.176000,-24.156000,984.539978,109,50,38,7630.000000,3500.000000,2660.000000,178,35.864258
Thu 1970-01-01 01:00:00 CET,126.017,863,3213,264,120.820000,449.820007,36.959999,-19,-28,1345,-13.908000,-20.496000,984.539978,107,55,43,7490.000000,3850.000000,3010.000000,179,35.925293
Thu 1970-01-01 01:00:00 CET,127.018,895,3186,230,125.300003,446.040009,32.200001,-13,-28,1348,-9.516000,-20.496000,986.735962,108,46,42,7560.000000,3220.000000,2940.000000,179,35.925293
Thu 1970-01-01 01:00:00 CET,128.017,861,3203,367,120.540001,448.420013,51.380001,-22,-25,1337,-16.104000,-18.299999,978.684021,107,45,42,7490.000000,3150.000000,2940.000000,180,35.986328
Thu 1970-01-01 01:00:00 CET,129.017,863,3199,405,120.820000,447.860016,56.700001,-18,-29,1344,-13.176000,-21.228001,983.807983,110,49,42,7700.000000,3430.000000,2940.000000,177,35.803223
Thu 1970-01-01 01:00:00 CET,130.017,861,3203,354,120.540001,448.420013,49.560001,-11,-23,1347,-8.052000,-16.836000,986.003967,111,46,39,7770.000000,3220.000000,2730.000000,180,35.986328
Thu 1970-01-01 01:00:00 CET,131.017,895,3228,334,125.300003,451.920013,46.759998,-17,-25,1343,-12.444000,-18.299999,983.075989,105,48,41,7350.000000,3360.000000,2870.000000,176,35.742188
Thu 1970-01-01 01:00:00 CET,132.017,865,3213,335,121.099998,449.820007,46.900002,-17,-28,1346,-12.444000,-20.496000,985.271973,106,49,40,7420.000000,3430.000000,2800.000000,179,35.925293
Thu 1970-01-01 01:00:00 CET,133.017,846,3202,364,118.440002,448.279999,50.959999,-14,-28,1349,-10.248000,-20.496000,987.468018,108,50,39,7560.000000,3500.000000,2730.000000,177,35.803223
Thu 1970-01-01 01:00:00 CET,134.016,856,3239,398,119.840004,453.459991,55.720001,-14,-26,1345,-10.248000,-19.032000,984.539978,106,50,37,7420.000000,3500.000000,2590.000000,178,35.864258
Thu 1970-01-01 01:00:00 CET,135.016,831,3240,334,116.340004,453.600006,46.759998,-19,-25,1344,-13.908000,-18.299999,983.807983,107,50,44,7490.000000,3500.000000,3080.000000,178,35.864258
Thu 1970-01-01 01:00:00 CET,136.018,860,3250,315,120.400002,455.000000,44.099998,-16,-27,1343,-11.712000,-19.764000,983.075989,111,46,41,7770.000000,3220.000000,2870.000000,177,35.803223
Thu 1970-01-01 01:00:00 CET,137.017,860,3251,335,120.400002,455.140015,46.900002,-15,-27,1347,-10.980000,-19.764000,986.003967,112,50,40,7840.000000,3500.000000,2800.000000,175,35.681152
Thu 1970-01-01 01:00:00 CET,138.017,924,3200,361,129.360001,448.000000,50.540001,-15,-28,1344,-10.980000,-20.496000,983.807983,109,49,43,7630.000000,3430.000000,3010.000000,177,35.803223
Thu 1970-01-01 01:00:00 CET,139.016,862,3214,345,120.680000,449.959991,48.299999,-17,-25,1346,-12.444000,-18.299999,985.271973,106,51,40,7420.000000,3570.000000,2800.000000,177,35.803223
Thu 1970-01-01 01:00:00 CET,140.017,881,3267,304,123.340004,457.380005,42.560001,-12,-29,1347,-8.784000,-21.228001,986.003967,110,50,43,7700.000000,3500.000000,3010.000000,177,35.803223
Thu 1970-01-01 01:00:00 CET,141.016,854,3192,320,119.559998,446.880005,44.799999,-19,-27,1343,-13.908000,-19.764000,983.075989,111,43,42,7770.000000,3010.000000,2940.000000,177,35.803223
Thu 1970-01-01 01:00:00 CET,142.016,836,3252,331,117.040001,455.279999,46.340000,-15,-34,1349,-10.980000,-24.888000,987.468018,110,48,44,7700.000000,3360.000000,3080.000000,180,35.986328
Thu 1970-01-01 01:00:00 CET,143.017,860,3216,380,120.400002,450.239990,53.200001,-19,-27,1344,-13.908000,-19.764000,983.807983,109,47,42,7630.000000,3290.000000,2940.000000,179,35.925293
Thu 1970-01-01 01:00:00 CET,144.017,898,3221,312,125.720001,450.940002,43.680000,-15,-33,1347,-10.980000,-24.156000,986.003967,105,50,44,7350.000000,3500.000000,3080.000000,181,36.047363
Thu 1970-01-01 01:00:00 CET,145.018,882,3233,263,123.480003,452.619995,36.820000,-19,-29,1346,-13.908000,-21.228001,985.271973,104,50,42,7280.000000,3500.000000,2940.000000,176,35.742188
Thu 1970-01-01 01:00:00 CET,146.016,880,3203,289,123.199997,448.420013,40.459999,-15,-32,1347,-10.980000,-23.424000,986.003967,109,50,41,7630.000000,3500.000000,2870.000000,179,35.925293
Thu 1970-01-01 01:00:00 CET,147.017,863,3168,348,120.820000,443.519989,48.720001,-18,-28,1346,-13.176000,-20.496000,985.271973,104,55,42,7280.000000,3850.000000,2940.000000,177,35.803223
Thu 1970-01-01 01:00:00 CET,148.016,898,3188,218,125.720001,446.320007,30.520000,-17,-29,1342,-12.444000,-21.228001,982.343994,113,48,40,7910.000000,3360.000000,2800.000000,178,35.864258
Thu 1970-01-01 01:00:00 CET,149.017,857,3239,279,119.980003,453.459991,39.060001,-17,-30,1342,-12.444000,-21.959999,982.343994,111,48,44,7770.000000,3360.000000,3080.000000,178,35.864258
Thu 1970-01-01 01:00:00 CET,150.016,881,3253,287,123.340004,455.420013,40.180000,-13,-29,1345,-9.516000,-21.228001,984.539978,109,48,41,7630.000000,3360.000000,2870.000000,178,35.864258
Thu 1970-01-01 01:00:00 CET,151.017,869,3213,272,121.660004,449.820007,38.080002,-14,-24,1348,-10.248000,-17.568001,986.735962,108,47,40,7560.000000,3290.000000,2800.000000,180,35.986328
Thu 1970-01-01 01:00:00 CET,152.017,868,3235,300,121.520004,452.899994,42.000000,-13,-32,1342,-9.516000,-23.424000,982.343994,107,48,42,7490.000000,3360.000000,2940.000000,177,35.803223
Thu 1970-01-01 01:00:00 CET,153.017,882,3219,344,123.480003,450.660004,48.160000,-12,-29,1344,-8.784000,-21.228001,983.807983,106,48,43,7420.000000,3360.000000,3010.000000,178,35.864258
Thu 1970-01-01 01:00:00 CET,154.018,912,3184,370,127.680000,445.760010,51.799999,-17,-26,1344,-12.444000,-19.032000,983.807983,114,50,40,7980.000000,3500.000000,2800.000000,174,35.620117
Thu 1970-01-01 01:00:00 CET,155.017,836,3233,334,117.040001,452.619995,46.759998,-17,-27,1345,-12.444000,-19.764000,984.539978,111,50,41,7770.000000,3500.000000,2870.000000,178,35.864258
Thu 1970-01-01 01:00:00 CET,156.017,877,3178,317,122.779999,444.920013,44.380001,-17,-25,1349,-12.444000,-18.299999,987.468018,109,49,42,7630.000000,3430.000000,2940.000000,180,35.986328
Thu 1970-01-01 01:00:00 CET,157.016,891,3231,317,124.739998,452.339996,44.380001,-20,-25,1343,-14.639999,-18.299999,983.075989,110,50,41,7700.000000,3500.000000,2870.000000,179,35.925293
Thu 1970-01-01 01:00:00 CET,158.016,875,3173,368,122.500000,444.220001,51.520000,-16,-26,1348,-11.712000,-19.032000,986.735962,110,53,41,7700.000000,3710.000000,2870.000000,179,35.925293
Thu 1970-01-01 01:00:00 CET,159.016,879,3215,360,123.059998,450.100006,50.400002,-15,-26,1344,-10.980000,-19.032000,983.807983,107,53,44,7490.000000,3710.000000,3080.000000,178,35.864258
Thu 1970-01-01 01:00:00 CET,160.016,837,3200,259,117.180000,448.000000,36.259998,-19,-29,1346,-13.908000,-21.228001,985.271973,108,52,45,7560.000000,3640.000000,3150.000000,180,35.986328
Thu 1970-01-01 01:00:00 CET,161.016,850,3224,268,119.000000,451.360016,37.520000,-15,-27,1345,-10.980000,-19.764000,984.539978,110,53,42,7700.000000,3710.000000,2940.000000,179,35.925293
Thu 1970-01-01 01:00:00 CET,162.017,856,3250,280,119.840004,455.000000,39.200001,-12,-29,1347,-8.784000,-21.228001,986.003967,107,55,43,7490.000000,3850.000000,3010.000000,178,35.864258
Thu 1970-01-01 01:00:00 CET,163.018,832,3197,193,116.480003,447.580017,27.020000,-18,-25,1344,-13.176000,-18.299999,983.807983,106,47,45,7420.000000,3290.000000,3150.000000,177,35.803223
Thu 1970-01-01 01:00:00 CET,164.017,905,3218,272,126.699997,450.519989,38.080002,-17,-31,1340,-12.444000,-22.691999,980.880005,113,50,41,7910.000000,3500.000000,2870.000000,180,35.986328
Thu 1970-01-01 01:00:00 CET,165.017,855,3211,262,119.699997,449.540009,36.680000,-19,-26,1342,-13.908000,-19.032000,982.343994,108,51,43,7560.000000,3570.000000,3010.000000,176,35.742188
Thu 1970-01-01 01:00:00 CET,166.017,877,3218,286,122.779999,450.519989,40.040001,-16,-29,1345,-11.712000,-21.228001,984.539978,108,54,43,7560.000000,3780.000000,3010.000000,177,35.803223
Thu 1970-01-01 01:00:00 CET,167.017,895,3193,253,125.300003,447.019989,35.420002,-17,-29,1348,-12.444000,-21.228001,986.735962,112,53,42,7840.000000,3710.000000,2940.000000,181,36.047363
Thu 1970-01-01 01:00:00 CET,168.017,876,3235,145,122.639999,452.899994,20.299999,-18,-31,1348,-13.176000,-22.691999,986.735962,112,48,43,7840.000000,3360.000000,3010.000000,175,35.681152
Thu 1970-01-01 01:00:00 CET,169.017,840,3246,307,117.599998,454.440002,42.980000,-16,-27,1344,-11.712000,-19.764000,983.807983,108,50,43,7560.000000,3500.000000,3010.000000,178,35.864258
Thu 1970-01-01 01:00:00 CET,170.017,883,3233,221,123.620003,452.619995,30.940001,-22,-29,1342,-16.104000,-21.228001,982.343994,110,49,43,7700.000000,3430.000000,3010.000000,177,35.803223
Thu 1970-01-01 01:00:00 CET,171.017,880,3195,268,123.199997,447.299988,37.520000,-20,-28,1343,-14.639999,-20.496000,983.075989,108,50,47,7560.000000,3500.000000,3290.000000,180,35.986328
Thu 1970-01-01 01:00:00 CET,172.018,888,3195,323,124.320000,447.299988,45.220001,-17,-26,1345,-12.444000,-19.032000,984.539978,108,48,42,7560.000000,3360.000000,2940.000000,180,35.986328
Thu 1970-01-01 01:00:00 CET,173.017,906,3162,326,126.840004,442.679993,45.639999,-15,-27,1346,-10.980000,-19.764000,985.271973,112,50,40,7840.000000,3500.000000,2800.000000,180,35.986328
Thu 1970-01-01 01:00:00 CET,174.017,878,3182,297,122.919998,445.480011,41.580002,-21,-29,1342,-15.372000,-21.228001,982.343994,108,47,41,7560.000000,3290.000000,2870.000000,179,35.925293
Thu 1970-01-01 01:00:00 CET,175.017,902,3190,368,126.279999,446.600006,51.520000,-20,-26,1344,-14.639999,-19.032000,983.807983,112,47,45,7840.000000,3290.000000,3150.000000,177,35.803223
Thu 1970-01-01 01:00:00 CET,176.018,891,3190,337,124.739998,446.600006,47.180000,-13,-26,1347,-9.516000,-19.032000,986.003967,111,50,38,7770.000000,3500.000000,2660.000000,179,35.925293
Thu 1970-01-01 01:00:00 CET,177.017,862,3226,341,120.680000,451.640015,47.740002,-16,-25,1344,-11.712000,-18.299999,983.807983,108,49,44,7560.000000,3430.000000,3080.000000,178,35.864258
Thu 1970-01-01 01:00:00 CET,178.017,884,3209,279,123.760002,449.260010,39.060001,-17,-30,1345,-12.444000,-21.959999,984.539978,106,52,44,7420.000000,3640.000000,3080.000000,180,35.986328
Thu 1970-01-01 01:00:00 CET,179.018,898,3208,294,125.720001,449.119995,41.160000,-17,-29,1343,-12.444000,-21.228001,983.075989,111,47,43,7770.000000,3290.000000,3010.000000,179,35.925293
Thu 1970-01-01 01:00:00 CET,180.017,796,3184,325,111.440002,445.760010,45.500000,-15,-23,1343,-10.980000,-16.836000,983.075989,111,46,44,7770.000000,3220.000000,3080.000000,181,36.047363
Thu 1970-01-01 01:00:00 CET,181.018,844,3159,336,118.160004,442.260010,47.040001,-13,-34,1351,-9.516000,-24.888000,988.932007,107,52,44,7490.000000,3640.000000,3080.000000,177,35.803223
Thu 1970-01-01 01:00:00 CET,182.017,853,3147,259,119.419998,440.580017,36.259998,-18,-28,1348,-13.176000,-20.496000,986.735962,103,50,43,7210.000000,3500.000000,3010.000000,181,36.047363
Thu 1970-01-01 01:00:00 CET,183.017,910,3181,295,127.400002,445.339996,41.299999,-18,-28,1344,-13.176000,-20.496000,983.807983,110,53,41,7700.000000,3710.000000,2870.000000,178,35.864258
Thu 1970-01-01 01:00:00 CET,184.017,851,3211,307,119.139999,449.540009,42.980000,-13,-26,1343,-9.516000,-19.032000,983.075989,108,44,39,7560.000000,3080.000000,2730.000000,180,35.986328
Thu 1970-01-01 01:00:00 CET,185.017,888,3218,214,124.320000,450.519989,29.960001,-17,-26,1346,-12.444000,-19.032000,985.271973,109,54,42,7630.000000,3780.000000,2940.000000,180,35.986328
Thu 1970-01-01 01:00:00 CET,186.014,856,3161,228,119.840004,442.540009,31.920000,-17,-26,1350,-12.444000,-19.032000,988.200012,107,51,46,7490.000000,3570.000000,3220.000000,179,35.925293
Thu 1970-01-01 01:00:00 CET,187.017,903,3160,237,126.419998,442.399994,33.180000,-16,-26,1342,-11.712000,-19.032000,982.343994,106,51,40,7420.000000,3570.000000,2800.000000,177,35.803223
Thu 1970-01-01 01:00:00 CET,188.017,880,3183,326,123.199997,445.619995,45.639999,-18,-30,1347,-13.176000,-21.959999,986.003967,104,53,46,7280.000000,3710.000000,3220.000000,178,35.864258
Thu 1970-01-01 01:00:00 CET,189.017,825,3168,342,115.500000,443.519989,47.880001,-19,-28,1347,-13.908000,-20.496000,986.003967,109,49,41,7630.000000,3430.000000,2870.000000,179,35.925293
Thu 1970-01-01 01:00:00 CET,190.019,859,3215,316,120.260002,450.100006,44.240002,-17,-29,1347,-12.444000,-21.228001,986.003967,103,51,45,7210.000000,3570.000000,3150.000000,178,35.864258
Thu 1970-01-01 01:00:00 CET,191.017,853,3206,341,119.419998,448.839996,47.740002,-19,-31,1343,-13.908000,-22.691999,983.075989,111,48,45,7770.000000,3360.000000,3150.000000,181,36.047363
Thu 1970-01-01 01:00:00 CET,192.017,847,3216,243,118.580002,450.239990,34.020000,-23,-28,1348,-16.836000,-20.496000,986.735962,106,51,45,7420.000000,3570.000000,3150.000000,177,35.803223
Thu 1970-01-01 01:00:00 CET,193.016,880,3228,320,123.199997,451.920013,44.799999,-16,-31,1347,-11.712000,-22.691999,986.003967,104,50,43,7280.000000,3500.000000,3010.000000,176,35.742188
Thu 1970-01-01 01:00:00 CET,194.017,863,3223,282,120.820000,451.220001,39.480000,-18,-26,1346,-13.176000,-19.032000,985.271973,116,50,41,8120.000000,3500.000000,2870.000000,180,35.986328
Thu 1970-01-01 01:00:00 CET,195.017,835,3236,341,116.900002,453.040009,47.740002,-16,-27,1347,-11.712000,-19.764000,986.003967,108,50,42,7560.000000,3500.000000,2940.000000,181,36.047363
Thu 1970-01-01 01:00:00 CET,196.017,877,3204,395,122.779999,448.559998,55.299999,-17,-28,1346,-12.444000,-20.496000,985.271973,105,48,41,7350.000000,3360.000000,2870.000000,178,35.864258
Thu 1970-01-01 01:00:00 CET,197.017,852,3187,392,119.279999,446.179993,54.880001,-17,-28,1344,-12.444000,-20.496000,983.807983,110,49,38,7700.000000,3430.000000,2660.000000,175,35.681152
Thu 1970-01-01 01:00:00 CET,198.016,863,3207,376,120.820000,448.980011,52.639999,-15,-27,1347,-10.980000,-19.764000,986.003967,109,49,41,7630.000000,3430.000000,2870.000000,180,35.986328
Thu 1970-01-01 01:00:00 CET,199.017,868,3188,332,121.520004,446.320007,46.480000,-19,-27,1348,-13.908000,-19.764000,986.735962,109,51,41,7630.000000,3570.000000,2870.000000,180,35.986328
Thu 1970-01-01 01:00:00 CET,200.017,846,3184,299,118.440002,445.760010,41.860001,-14,-30,1345,-10.248000,-21.959999,984.539978,109,50,42,7630.000000,3500.000000,2940.000000,177,35.803223
Thu 1970-01-01 01:00:00 CET,201.016,883,3235,308,123.620003,452.899994,43.119999,-17,-29,1347,-12.444000,-21.228001,986.003967,105,50,45,7350.000000,3500.000000,3150.000000,179,35.925293
Thu 1970-01-01 01:00:00 CET,202.017,871,3229,354,121.940002,452.059998,49.560001,-18,-28,1349,-13.176000,-20.496000,987.468018,106,49,43,7420.000000,3430.000000,3010.000000,180,35.986328
Thu 1970-01-01 01:00:00 CET,203.017,888,3194,364,124.320000,447.160004,50.959999,-16,-31,1347,-11.712000,-22.691999,986.003967,109,51,43,7630.000000,3570.000000,3010.000000,177,35.803223
Thu 1970-01-01 01:00:00 CET,204.017,897,3192,418,125.580002,446.880005,58.520000,-20,-31,1344,-14.639999,-22.691999,983.807983,110,49,43,7700.000000,3430.000000,3010.000000,177,35.803223
Thu 1970-01-01 01:00:00 CET,205.016,858,3188,356,120.120003,446.320007,49.840000,-14,-26,1348,-10.248000,-19.032000,986.735962,111,51,40,7770.000000,3570.000000,2800.000000,181,36.047363
Thu 1970-01-01 01:00:00 CET,206.017,837,3192,452,117.180000,446.880005,63.279999,-17,-25,1343,-12.444000,-18.299999,983.075989,107,49,41,7490.000000,3430.000000,2870.000000,177,35.803223
Thu 1970-01-01 01:00:00 CET,207.017,909,3157,401,127.260002,441.980011,56.139999,-17,-28,1347,-12.444000,-20.496000,986.003967,106,48,43,7420.000000,3360.000000,3010.000000,177,35.803223
Thu 1970-01-01 01:00:00 CET,208.018,902,3177,379,126.279999,444.779999,53.060001,-15,-26,1345,-10.980000,-19.032000,984.539978,111,49,45,7770.000000,3430.000000,3150.000000,182,36.108398
Thu 1970-01-01 01:00:00 CET,209.017,886,3237,379,124.040001,453.179993,53.060001,-16,-26,1346,-11.712000,-19.032000,985.271973,110,51,47,7700.000000,3570.000000,3290.000000,175,35.681152
Thu 1970-01-01 01:00:00 CET,210.016,862,3181,363,120.680000,445.339996,50.820000,-19,-26,1349,-13.908000,-19.032000,987.468018,110,54,41,7700.000000,3780.000000,2870.000000,178,35.864258
Thu 1970-01-01 01:00:00 CET,211.016,893,3221,350,125.020004,450.940002,49.000000,-16,-29,1346,-11.712000,-21.228001,985.271973,100,48,42,7000.000000,3360.000000,2940.000000,178,35.864258
Thu 1970-01-01 01:00:00 CET,212.017,844,3199,466,118.160004,447.860016,65.239998,-17,-28,1345,-12.444000,-20.496000,984.539978,115,53,40,8050.000000,3710.000000,2800.000000,179,35.925293
Thu 1970-01-01 01:00:00 CET,213.017,913,3185,440,127.820000,445.899994,61.599998,-18,-25,1344,-13.176000,-18.299999,983.807983,113,47,45,7910.000000,3290.000000,3150.000000,177,35.803223
Thu 1970-01-01 01:00:00 CET,214.017,864,3194,337,120.959999,447.160004,47.180000,-17,-28,1344,-12.444000,-20.496000,983.807983,109,50,44,7630.000000,3500.000000,3080.000000,176,35.742188
Thu 1970-01-01 01:00:00 CET,215.017,895,3235,342,125.300003,452.899994,47.880001,-20,-24,1342,-14.639999,-17.568001,982.343994,106,48,43,7420.000000,3360.000000,3010.000000,179,35.925293
Thu 1970-01-01 01:00:00 CET,216.017,900,3209,353,126.000000,449.260010,49.420002,-17,-26,1343,-12.444000,-19.032000,983.075989,110,51,43,7700.000000,3570.000000,3010.000000,179,35.925293
Thu 1970-01-01 01:00:00 CET,217.019,861,3227,371,120.540001,451.779999,51.939999,-19,-33,1348,-13.908000,-24.156000,986.735962,112,47,42,7840.000000,3290.000000,2940.000000,178,35.864258
Thu 1970-01-01 01:00:00 CET,218.017,870,3180,403,121.800003,445.200012,56.420002,-16,-30,1346,-11.712000,-21.959999,985.271973,109,47,44,7630.000000,3290.000000,3080.000000,180,35.986328
Thu 1970-01-01 01:00:00 CET,219.017,842,3182,387,117.879997,445.480011,54.180000,-16,-33,1345,-11.712000,-24.156000,984.539978,104,44,45,7280.000000,3080.000000,3150.000000,179,35.925293
Thu 1970-01-01 01:00:00 CET,220.017,844,3246,295,118.160004,454.440002,41.299999,-15,-26,1343,-10.980000,-19.032000,983.075989,111,53,41,7770.000000,3710.000000,2870.000000,179,35.925293
Thu 1970-01-01 01:00:00 CET,221.017,865,3217,381,121.099998,450.380005,53.340000,-16,-30,1348,-11.712000,-21.959999,986.735962,112,51,44,7840.000000,3570.000000,3080.000000,178,35.864258
Thu 1970-01-01 01:00:00 CET,222.017,896,3161,388,125.440002,442.540009,54.320000,-14,-25,1341,-10.248000,-18.299999,981.612000,107,51,40,7490.000000,3570.000000,2800.000000,179,35.925293
Thu 1970-01-01 01:00:00 CET,223.016,864,3212,329,120.959999,449.679993,46.060001,-15,-32,1344,-10.980000,-23.424000,983.807983,105,47,42,7350.000000,3290.000000,2940.000000,181,36.047363
Thu 1970-01-01 01:00:00 CET,224.017,860,3145,306,120.400002,440.299988,42.840000,-15,-28,1347,-10.980000,-20.496000,986.003967,115,51,41,8050.000000,3570.000000,2870.000000,180,35.986328
Thu 1970-01-01 01:00:00 CET,225.015,866,3250,301,121.239998,455.000000,42.139999,-15,-28,1345,-10.980000,-20.496000,984.539978,110,49,43,7700.000000,3430.000000,3010.000000,178,35.864258
Thu 1970-01-01 01:00:00 CET,226.018,891,3247,283,124.739998,454.580017,39.619999,-15,-23,1343,-10.980000,-16.836000,983.075989,112,45,42,7840.000000,3150.000000,2940.000000,180,35.986328
Thu 1970-01-01 01:00:00 CET,227.017,881,3197,287,123.340004,447.580017,40.180000,-19,-27,1351,-13.908000,-19.764000,988.932007,106,52,39,7420.000000,3640.000000,2730.000000,179,35.925293
Thu 1970-01-01 01:00:00 CET,228.017,877,3254,404,122.779999,455.559998,56.560001,-20,-26,1345,-14.639999,-19.032000,984.539978,113,48,43,7910.000000,3360.000000,3010.000000,182,36.108398
Thu 1970-01-01 01:00:00 CET,229.016,849,3240,328,118.860001,453.600006,45.920002,-15,-22,1346,-10.980000,-16.104000,985.271973,110,50,39,7700.000000,3500.000000,2730.000000,177,35.803223
Thu 1970-01-01 01:00:00 CET,230.017,882,3164,289,123.480003,442.959991,40.459999,-13,-32,1344,-9.516000,-23.424000,983.807983,111,49,44,7770.000000,3430.000000,3080.000000,179,35.925293
Thu 1970-01-01 01:00:00 CET,231.017,865,3216,318,121.099998,450.239990,44.520000,-19,-30,1344,-13.908000,-21.959999,983.807983,107,49,41,7490.000000,3430.000000,2870.000000,178,35.864258
Thu 1970-01-01 01:00:00 CET,232.017,853,3243,287,119.419998,454.019989,40.180000,-15,-31,1346,-10.980000,-22.691999,985.271973,107,48,42,7490.000000,3360.000000,2940.000000,179,35.925293
Thu 1970-01-01 01:00:00 CET,233.017,877,3186,275,122.779999,446.040009,38.500000,-18,-28,1345,-13.176000,-20.496000,984.539978,105,51,39,7350.000000,3570.000000,2730.000000,180,35.986328
Thu 1970-01-01 01:00:00 CET,234.017,846,3230,321,118.440002,452.200012,44.939999,-19,-30,1344,-13.908000,-21.959999,983.807983,105,48,42,7350.000000,3360.000000,2940.000000,178,35.864258
Thu 1970-01-01 01:00:00 CET,235.018,908,3221,254,127.120003,450.940002,35.560001,-16,-25,1340,-11.712000,-18.299999,980.880005,106,47,41,7420.000000,3290.000000,2870.000000,177,35.803223
Thu 1970-01-01 01:00:00 CET,236.016,908,3171,227,127.120003,443.940002,31.780001,-15,-30,1346,-10.980000,-21.959999,985.271973,106,50,42,7420.000000,3500.000000,2940.000000,179,35.925293
Thu 1970-01-01 01:00:00 CET,237.016,900,3197,182,126.000000,447.580017,25.480000,-16,-25,1344,-11.712000,-18.299999,983.807983,113,50,43,7910.000000,3500.000000,3010.000000,180,35.986328
Thu 1970-01-01 01:00:00 CET,238.016,878,3189,248,122.919998,446.459991,34.720001,-16,-26,1342,-11.712000,-19.032000,982.343994,104,50,43,7280.000000,3500.000000,3010.000000,177,35.803223
Thu 1970-01-01 01:00:00 CET,239.017,876,3256,181,122.639999,455.839996,25.340000,-16,-32,1341,-11.712000,-23.424000,981.612000,107,52,46,7490.000000,3640.000000,3220.000000,179,35.925293
Thu 1970-01-01 01:00:00 CET,240.017,836,3246,341,117.040001,454.440002,47.740002,-17,-27,1345,-12.444000,-19.764000,984.539978,104,51,42,7280.000000,3570.000000,2940.000000,177,35.803223
Thu 1970-01-01 01:00:00 CET,241.017,891,3183,277,124.739998,445.619995,38.779999,-22,-26,1345,-16.104000,-19.032000,984.539978,105,49,40,7350.000000,3430.000000,2800.000000,179,35.925293
Thu 1970-01-01 01:00:00 CET,242.017,887,3210,298,124.180000,449.399994,41.720001,-18,-27,1345,-13.176000,-19.764000,984.539978,113,50,40,7910.000000,3500.000000,2800.000000,181,36.047363
Thu 1970-01-01 01:00:00 CET,243.018,891,3196,283,124.739998,447.440002,39.619999,-15,-27,1350,-10.980000,-19.764000,988.200012,114,49,40,7980.000000,3430.000000,2800.000000,181,36.047363
Thu 1970-01-01 01:00:00 CET,244.018,859,3191,259,120.260002,446.739990,36.259998,-15,-28,1332,-10.980000,-20.496000,975.023987,110,48,44,7700.000000,3360.000000,3080.000000,180,35.986328
Thu 1970-01-01 01:00:00 CET,245.017,888,3181,259,124.320000,445.339996,36.259998,-16,-25,1342,-11.712000,-18.299999,982.343994,108,49,42,7560.000000,3430.000000,2940.000000,177,35.803223
Thu 1970-01-01 01:00:00 CET,246.017,850,3207,256,119.000000,448.980011,35.840000,-15,-29,1348,-10.980000,-21.228001,986.735962,109,48,40,7630.000000,3360.000000,2800.000000,180,35.986328
Thu 1970-01-01 01:00:00 CET,247.017,883,3186,253,123.620003,446.040009,35.420002,-16,-29,1346,-11.712000,-21.228001,985.271973,114,49,40,7980.000000,3430.000000,2800.000000,181,36.047363
Thu 1970-01-01 01:00:00 CET,248.017,826,3201,229,115.639999,448.140015,32.060001,-19,-27,1345,-13.908000,-19.764000,984.539978,113,51,42,7910.000000,3570.000000,2940.000000,176,35.742188
Thu 1970-01-01 01:00:00 CET,249.017,903,3192,317,126.419998,446.880005,44.380001,-20,-25,1346,-14.639999,-18.299999,985.271973,109,45,41,7630.000000,3150.000000,2870.000000,177,35.803223
Thu 1970-01-01 01:00:00 CET,250.017,843,3136,300,118.020004,439.040009,42.000000,-16,-27,1342,-11.712000,-19.764000,982.343994,111,46,44,7770.000000,3220.000000,3080.000000,180,35.986328
Thu 1970-01-01 01:00:00 CET,251.017,890,3200,250,124.599998,448.000000,35.000000,-18,-30,1346,-13.176000,-21.959999,985.271973,111,48,43,7770.000000,3360.000000,3010.000000,179,35.925293
Thu 1970-01-01 01:00:00 CET,252.017,893,3200,293,125.020004,448.000000,41.020000,-18,-23,1342,-13.176000,-16.836000,982.343994,102,49,39,7140.000000,3430.000000,2730.000000,178,35.864258
Thu 1970-01-01 01:00:00 CET,253.018,857,3186,268,119.980003,446.040009,37.520000,-18,-25,1347,-13.176000,-18.299999,986.003967,108,52,41,7560.000000,3640.000000,2870.000000,180,35.986328
Thu 1970-01-01 01:00:00 CET,254.017,894,3225,283,125.160004,451.500000,39.619999,-16,-27,1345,-11.712000,-19.764000,984.539978,110,48,42,7700.000000,3360.000000,2940.000000,177,35.803223
Thu 1970-01-01 01:00:00 CET,255.019,915,3224,257,128.100006,451.360016,35.980000,-14,-30,1348,-10.248000,-21.959999,986.735962,104,49,41,7280.000000,3430.000000,2870.000000,180,35.986328
Thu 1970-01-01 01:00:00 CET,256.017,890,3187,362,124.599998,446.179993,50.680000,-17,-26,1345,-12.444000,-19.032000,984.539978,106,50,41,7420.000000,3500.000000,2870.000000,179,35.925293
Thu 1970-01-01 01:00:00 CET,257.017,840,3162,313,117.599998,442.679993,43.820000,-19,-29,1343,-13.908000,-21.228001,983.075989,110,48,41,7700.000000,3360.000000,2870.000000,178,35.864258
Thu 1970-01-01 01:00:00 CET,258.016,856,3206,361,119.840004,448.839996,50.540001,-19,-30,1345,-13.908000,-21.959999,984.539978,106,47,40,7420.000000,3290.000000,2800.000000,181,36.047363
Thu 1970-01-01 01:00:00 CET,259.017,862,3224,312,120.680000,451.360016,43.680000,-17,-26,1345,-12.444000,-19.032000,984.539978,105,50,42,7350.000000,3500.000000,2940.000000,180,35.986328
Thu 1970-01-01 01:00:00 CET,260.017,826,3195,334,115.639999,447.299988,46.759998,-15,-26,1345,-10.980000,-19.032000,984.539978,105,48,43,7350.000000,3360.000000,3010.000000,177,35.803223
Thu 1970-01-01 01:00:00 CET,261.017,835,3191,366,116.900002,446.739990,51.240002,-14,-25,1343,-10.248000,-18.299999,983.075989,112,51,40,7840.000000,3570.000000,2800.000000,178,35.864258
Thu 1970-01-01 01:00:00 CET,262.018,853,3210,249,119.419998,449.399994,34.860001,-14,-46,1343,-10.248000,-33.672001,983.075989,113,51,41,7910.000000,3570.000000,2870.000000,178,35.864258
Thu 1970-01-01 01:00:00 CET,263.016,799,3203,311,111.860001,448.420013,43.540001,-16,-31,1344,-11.712000,-22.691999,983.807983,109,47,43,7630.000000,3290.000000,3010.000000,177,35.803223
Thu 1970-01-01 01:00:00 CET,264.017,858,3156,328,120.120003,441.839996,45.920002,-16,-26,1350,-11.712000,-19.032000,988.200012,106,48,38,7420.000000,3360.000000,2660.000000,178,35.864258
Thu 1970-01-01 01:00:00 CET,265.017,879,3198,304,123.059998,447.720001,42.560001,-16,-29,1347,-11.712000,-21.228001,986.003967,109,52,38,7630.000000,3640.000000,2660.000000,177,35.803223
Thu 1970-01-01 01:00:00 CET,266.019,855,3190,307,119.699997,446.600006,42.980000,-17,-25,1348,-12.444000,-18.299999,986.735962,111,50,43,7770.000000,3500.000000,3010.000000,179,35.925293
Thu 1970-01-01 01:00:00 CET,267.017,904,3188,378,126.559998,446.320007,52.920002,-15,-27,1344,-10.980000,-19.764000,983.807983,111,47,40,7770.000000,3290.000000,2800.000000,181,36.047363
Thu 1970-01-01 01:00:00 CET,268.017,886,3188,313,124.040001,446.320007,43.820000,-20,-30,1343,-14.639999,-21.959999,983.075989,114,51,43,7980.000000,3570.000000,3010.000000,176,35.742188
Thu 1970-01-01 01:00:00 CET,269.018,874,3188,283,122.360001,446.320007,39.619999,-21,-26,1344,-15.372000,-19.032000,983.807983,107,47,42,7490.000000,3290.000000,2940.000000,181,36.047363
Thu 1970-01-01 01:00:00 CET,270.017,857,3202,201,119.980003,448.279999,28.139999,-20,-28,1348,-14.639999,-20.496000,986.735962,111,48,43,7770.000000,3360.000000,3010.000000,180,35.986328
Thu 1970-01-01 01:00:00 CET,271.018,892,3195,304,124.879997,447.299988,42.560001,-18,-30,1343,-13.176000,-21.959999,983.075989,103,46,45,7210.000000,3220.000000,3150.000000,180,35.986328
Thu 1970-01-01 01:00:00 CET,272.017,886,3183,338,124.040001,445.619995,47.320000,-19,-27,1347,-13.908000,-19.764000,986.003967,106,51,46,7420.000000,3570.000000,3220.000000,179,35.925293
Thu 1970-01-01 01:00:00 CET,273.017,850,3170,374,119.000000,443.799988,52.360001,-16,-29,1345,-11.712000,-21.228001,984.539978,108,48,42,7560.000000,3360.000000,2940.000000,181,36.047363
Thu 1970-01-01 01:00:00 CET,274.016,855,3200,322,119.699997,448.000000,45.080002,-13,-26,1343,-9.516000,-19.032000,983.075989,114,48,41,7980.000000,3360.000000,2870.000000,182,36.108398
Thu 1970-01-01 01:00:00 CET,275.016,867,3198,332,121.379997,447.720001,46.480000,-16,-26,1349,-11.712000,-19.032000,987.468018,106,46,39,7420.000000,3220.000000,2730.000000,180,35.986328
Thu 1970-01-01 01:00:00 CET,276.015,841,3197,292,117.739998,447.580017,40.880001,-15,-31,1347,-10.980000,-22.691999,986.003967,108,51,40,7560.000000,3570.000000,2800.000000,179,35.925293
Thu 1970-01-01 01:00:00 CET,277.017,858,3201,331,120.120003,448.140015,46.340000,-17,-22,1343,-12.444000,-16.104000,983.075989,109,46,42,7630.000000,3220.000000,2940.000000,178,35.864258
Thu 1970-01-01 01:00:00 CET,278.017,840,3228,371,117.599998,451.920013,51.939999,-12,-44,1345,-8.784000,-32.208000,984.539978,113,50,45,7910.000000,3500.000000,3150.000000,180,35.986328
Thu 1970-01-01 01:00:00 CET,279.017,862,3202,288,120.680000,448.279999,40.320000,-19,-29,1346,-13.908000,-21.228001,985.271973,108,50,38,7560.000000,3500.000000,2660.000000,181,36.047363
Thu 1970-01-01 01:00:00 CET,280.018,866,3248,300,121.239998,454.720001,42.000000,-13,-26,1343,-9.516000,-19.032000,983.075989,107,48,42,7490.000000,3360.000000,2940.000000,180,35.986328
Thu 1970-01-01 01:00:00 CET,281.017,840,3218,312,117.599998,450.519989,43.680000,-12,-28,1349,-8.784000,-20.496000,987.468018,108,51,41,7560.000000,3570.000000,2870.000000,179,35.925293
Thu 1970-01-01 01:00:00 CET,282.017,828,3203,363,115.919998,448.420013,50.820000,-15,-26,1346,-10.980000,-19.032000,985.271973,107,48,41,7490.000000,3360.000000,2870.000000,181,36.047363
Thu 1970-01-01 01:00:00 CET,283.017,873,3180,299,122.220001,445.200012,41.860001,-14,-30,1346,-10.248000,-21.959999,985.271973,106,51,43,7420.000000,3570.000000,3010.000000,178,35.864258
Thu 1970-01-01 01:00:00 CET,284.017,868,3205,322,121.520004,448.700012,45.080002,-12,-33,1340,-8.784000,-24.156000,980.880005,106,52,42,7420.000000,3640.000000,2940.000000,177,35.803223
Thu 1970-01-01 01:00:00 CET,285.016,861,3237,300,120.540001,453.179993,42.000000,-18,-30,1344,-13.176000,-21.959999,983.807983,108,48,43,7560.000000,3360.000000,3010.000000,182,36.108398
Thu 1970-01-01 01:00:00 CET,286.016,841,3245,325,117.739998,454.299988,45.500000,-19,-30,1348,-13.908000,-21.959999,986.735962,102,55,41,7140.000000,3850.000000,2870.000000,178,35.864258
Thu 1970-01-01 01:00:00 CET,287.017,809,3250,279,113.260002,455.000000,39.060001,-15,-24,1347,-10.980000,-17.568001,986.003967,103,48,41,7210.000000,3360.000000,2870.000000,178,35.864258
Thu 1970-01-01 01:00:00 CET,288.017,836,3236,336,117.040001,453.040009,47.040001,-12,-27,1348,-8.784000,-19.764000,986.735962,108,45,40,7560.000000,3150.000000,2800.000000,179,35.925293
Thu 1970-01-01 01:00:00 CET,289.016,868,3174,292,121.520004,444.360016,40.880001,-17,-14,1343,-12.444000,-10.248000,983.075989,103,50,42,7210.000000,3500.000000,2940.000000,182,36.108398
Thu 1970-01-01 01:00:00 CET,290.017,863,3266,339,120.820000,457.239990,47.459999,-11,-36,1348,-8.052000,-26.351999,986.735962,112,47,43,7840.000000,3290.000000,3010.000000,182,36.108398
Thu 1970-01-01 01:00:00 CET,291.017,850,3235,352,119.000000,452.899994,49.279999,-35,-9,1342,-25.619999,-6.588000,982.343994,108,45,46,7560.000000,3150.000000,3220.000000,179,35.925293
Thu 1970-01-01 01:00:00 CET,292.016,870,3219,364,121.800003,450.660004,50.959999,-22,-32,1339,-16.104000,-23.424000,980.148010,110,50,44,7700.000000,3500.000000,3080.000000,179,35.925293
Thu 1970-01-01 01:00:00 CET,293.017,809,3188,249,113.260002,446.320007,34.860001,-16,-26,1348,-11.712000,-19.032000,986.735962,108,48,44,7560.000000,3360.000000,3080.000000,181,36.047363
Thu 1970-01-01 01:00:00 CET,294.017,878,3247,334,122.919998,454.580017,46.759998,-20,-33,1350,-14.639999,-24.156000,988.200012,110,47,42,7700.000000,3290.000000,2940.000000,176,35.742188
Thu 1970-01-01 01:00:00 CET,295.017,860,3254,368,120.400002,455.559998,51.520000,-16,-24,1347,-11.712000,-17.568001,986.003967,107,52,44,7490.000000,3640.000000,3080.000000,179,35.925293
Thu 1970-01-01 01:00:00 CET,296.017,882,3259,341,123.480003,456.260010,47.740002,-14,-23,1350,-10.248000,-16.836000,988.200012,112,47,43,7840.000000,3290.000000,3010.000000,184,36.230469
Thu 1970-01-01 01:00:00 CET,297.017,911,3207,352,127.540001,448.980011,49.279999,-15,-25,1349,-10.980000,-18.299999,987.468018,109,47,46,7630.000000,3290.000000,3220.000000,182,36.108398
Thu 1970-01-01 01:00:00 CET,298.018,866,3245,347,121.239998,454.299988,48.580002,-16,-31,1344,-11.712000,-22.691999,983.807983,110,51,43,7700.000000,3570.000000,3010.000000,181,36.047363
Thu 1970-01-01 01:00:00 CET,299.017,842,3214,346,117.879997,449.959991,48.439999,-18,-27,1343,-13.176000,-19.764000,983.075989,113,49,46,7910.000000,3430.000000,3220.000000,180,35.986328
Thu 1970-01-01 01:00:00 CET,300.017,881,3225,362,123.340004,451.500000,50.680000,-15,-27,1343,-10.980000,-19.764000,983.075989,103,53,43,7210.000000,3710.000000,3010.000000,181,36.047363
Thu 1970-01-01 01:00:00 CET,301.017,823,3259,377,115.220001,456.260010,52.779999,-21,-23,1344,-15.372000,-16.836000,983.807983,107,54,41,7490.000000,3780.000000,2870.000000,182,36.108398
Thu 1970-01-01 01:00:00 CET,302.016,858,3239,365,120.120003,453.459991,51.099998,-19,-25,1344,-13.908000,-18.299999,983.807983,107,49,40,7490.000000,3430.000000,2800.000000,178,35.864258
Thu 1970-01-01 01:00:00 CET,303.017,865,3239,377,121.099998,453.459991,52.779999,-17,-24,1345,-12.444000,-17.568001,984.539978,110,49,43,7700.000000,3430.000000,3010.000000,177,35.803223
Thu 1970-01-01 01:00:00 CET,304.017,869,3252,396,121.660004,455.279999,55.439999,-12,-30,1345,-8.784000,-21.959999,984.539978,109,51,46,7630.000000,3570.000000,3220.000000,182,36.108398
Thu 1970-01-01 01:00:00 CET,305.017,852,3238,332,119.279999,453.320007,46.480000,-16,-23,1344,-11.712000,-16.836000,983.807983,112,48,43,7840.000000,3360.000000,3010.000000,176,35.742188
Thu 1970-01-01 01:00:00 CET,306.017,905,3198,324,126.699997,447.720001,45.360001,-13,-28,1343,-9.516000,-20.496000,983.075989,107,52,38,7490.000000,3640.000000,2660.000000,183,36.169434
Thu 1970-01-01 01:00:00 CET,307.019,814,3226,306,113.959999,451.640015,42.840000,-16,-25,1346,-11.712000,-18.299999,985.271973,106,47,40,7420.000000,3290.000000,2800.000000,181,36.047363
Thu 1970-01-01 01:00:00 CET,308.017,896,3256,375,125.440002,455.839996,52.500000,-20,-26,1346,-14.639999,-19.032000,985.271973,111,49,41,7770.000000,3430.000000,2870.000000,177,35.803223
Thu 1970-01-01 01:00:00 CET,309.017,802,3224,393,112.279999,451.360016,55.020000,-19,-22,1344,-13.908000,-16.104000,983.807983,104,47,41,7280.000000,3290.000000,2870.000000,178,35.864258
Thu 1970-01-01 01:00:00 CET,310.017,857,3213,294,119.980003,449.820007,41.160000,8,-75,-124,5.856000,-54.899998,-90.767998,117,55,43,8190.000000,3850.000000,3010.000000,175,35.681152
Thu 1970-01-01 01:00:00 CET,311.017,864,3206,341,120.959999,448.839996,47.740002,-15,-58,1327,-10.980000,-42.456001,971.364014,108,50,43,7560.000000,3500.000000,3010.000000,180,35.986328
Thu 1970-01-01 01:00:00 CET,312.016,861,3226,333,120.540001,451.640015,46.619999,-18,-12,1341,-13.176000,-8.784000,981.612000,111,50,39,7770.000000,3500.000000,2730.000000,180,35.986328
Thu 1970-01-01 01:00:00 CET,313.015,845,3252,244,118.300003,455.279999,34.160000,-17,-27,1343,-12.444000,-19.764000,983.075989,102,49,45,7140.000000,3430.000000,3150.000000,176,35.742188
Thu 1970-01-01 01:00:00 CET,314.015,843,3208,223,118.020004,449.119995,31.219999,-20,-32,1342,-14.639999,-23.424000,982.343994,110,52,42,7700.000000,3640.000000,2940.000000,183,36.169434
Thu 1970-01-01 01:00:00 CET,315.017,835,3201,235,116.900002,448.140015,32.900002,-25,-25,1341,-18.299999,-18.299999,981.612000,107,50,41,7490.000000,3500.000000,2870.000000,183,36.169434
Thu 1970-01-01 01:00:00 CET,316.018,859,3238,307,120.260002,453.320007,42.980000,-19,-24,1345,-13.908000,-17.568001,984.539978,108,47,40,7560.000000,3290.000000,2800.000000,176,35.742188
Thu 1970-01-01 01:00:00 CET,317.017,865,3170,303,121.099998,443.799988,42.420002,-15,-29,1342,-10.980000,-21.228001,982.343994,106,50,44,7420.000000,3500.000000,3080.000000,177,35.803223
Thu 1970-01-01 01:00:00 CET,318.017,878,3270,275,122.919998,457.799988,38.500000,-20,-30,1343,-14.639999,-21.959999,983.075989,106,49,41,7420.000000,3430.000000,2870.000000,181,36.047363
Thu 1970-01-01 01:00:00 CET,319.017,866,3226,280,121.239998,451.640015,39.200001,-19,-27,1342,-13.908000,-19.764000,982.343994,106,51,43,7420.000000,3570.000000,3010.000000,179,35.925293
Thu 1970-01-01 01:00:00 CET,320.017,901,3211,331,126.139999,449.540009,46.340000,-16,-32,1344,-11.712000,-23.424000,983.807983,106,50,41,7420.000000,3500.000000,2870.000000,178,35.864258
Thu 1970-01-01 01:00:00 CET,321.017,927,3209,217,129.779999,449.260010,30.380001,-18,-25,1344,-13.176000,-18.299999,983.807983,109,53,41,7630.000000,3710.000000,2870.000000,179,35.925293
Thu 1970-01-01 01:00:00 CET,322.017,860,3195,253,120.400002,447.299988,35.420002,-17,-26,1344,-12.444000,-19.032000,983.807983,107,49,41,7490.000000,3430.000000,2870.000000,181,36.047363
Thu 1970-01-01 01:00:00 CET,323.017,937,3206,293,131.180008,448.839996,41.020000,-17,-30,1345,-12.444000,-21.959999,984.539978,109,46,45,7630.000000,3220.000000,3150.000000,180,35.986328
Time GPS,Mission time,MGT-X raw,MGT-Y raw,MGT-Z raw,MGT-X mgauss,MGT-Y mgauss,MGT-Z mgauss,ACC-X raw,ACC-Y raw,ACC-Z raw,ACC-X mg,ACC-Y mg,ACC-Z mg,GYRO-X raw,GYRO-Y raw,GYRO-Z raw,GYRO-X mdps,GYRO-Y mdps,GYRO-Z mdps,Temp raw,Temp Celsius
Thu 1970-01-01 01:00:00 CET,0,0,0,0,0.000000,0.000000,0.000000,0,0,0,0.000000,0.000000,0.000000,0,0,0,0.000000,0.000000,0.000000,0,0.000000
Thu 1970-01-01 01:00:00 CET,0.0432662,-1291,-185,1821,-180.740005,-25.900000,254.940002,-12,-42,1384,-8.784000,-30.743999,1013.088013,84,40,42,5880.000000,2800.000000,2940.000000,49,27.990723
Thu 1970-01-01 01:00:00 CET,1.04287,-1335,-190,1726,-186.899994,-26.600000,241.639999,-3,-46,1354,-2.196000,-33.672001,991.127991,76,40,43,5320.000000,2800.000000,3010.000000,50,28.051758
Thu 1970-01-01 01:00:00 CET,2.04247,-1291,-171,1786,-180.740005,-23.940001,250.040009,0,-42,1351,0.000000,-30.743999,988.932007,79,40,43,5530.000000,2800.000000,3010.000000,52,28.173828
Thu 1970-01-01 01:00:00 CET,3.04216,-1279,-203,1753,-179.059998,-28.420000,245.419998,-7,-45,1352,-5.124000,-32.939999,989.664001,79,43,37,5530.000000,3010.000000,2590.000000,51,28.112793
Thu 1970-01-01 01:00:00 CET,4.04241,-1274,-215,1764,-178.360001,-30.100000,246.960007,-5,-45,1357,-3.660000,-32.939999,993.323975,80,41,43,5600.000000,2870.000000,3010.000000,49,27.990723
Thu 1970-01-01 01:00:00 CET,5.04295,-1289,-217,1806,-180.460007,-30.380001,252.839996,-1,-44,1351,-0.732000,-32.208000,988.932007,83,40,43,5810.000000,2800.000000,3010.000000,50,28.051758
Thu 1970-01-01 01:00:00 CET,6.0423,-1291,-152,1780,-180.740005,-21.280001,249.199997,-4,-42,1353,-2.928000,-30.743999,990.395996,81,44,42,5670.000000,3080.000000,2940.000000,51,28.112793
Thu 1970-01-01 01:00:00 CET,7.04208,-1284,-189,1751,-179.759995,-26.460001,245.139999,-2,-48,1354,-1.464000,-35.136002,991.127991,87,40,46,6090.000000,2800.000000,3220.000000,51,28.112793
Thu 1970-01-01 01:00:00 CET,8.04157,-1298,-143,1783,-181.720001,-20.020000,249.619995,-1,-43,1349,-0.732000,-31.476000,987.468018,81,40,41,5670.000000,2800.000000,2870.000000,54,28.295898
Thu 1970-01-01 01:00:00 CET,9.04211,-1294,-205,1740,-181.160004,-28.700001,243.600006,-3,-45,1352,-2.196000,-32.939999,989.664001,77,44,44,5390.000000,3080.000000,3080.000000,50,28.051758
Thu 1970-01-01 01:00:00 CET,10.0427,-1289,-202,1790,-180.460007,-28.280001,250.600006,-1,-47,1352,-0.732000,-34.403999,989.664001,81,47,45,5670.000000,3290.000000,3150.000000,50,28.051758
Thu 1970-01-01 01:00:00 CET,11.0414,-1260,-218,1736,-176.399994,-30.520000,243.040009,-3,-40,1354,-2.196000,-29.279999,991.127991,83,37,42,5810.000000,2590.000000,2940.000000,52,28.173828
Thu 1970-01-01 01:00:00 CET,12.0414,-1300,-197,1704,-182.000000,-27.580000,238.559998,-3,-43,1349,-2.196000,-31.476000,987.468018,85,40,38,5950.000000,2800.000000,2660.000000,53,28.234863
Thu 1970-01-01 01:00:00 CET,13.0416,-1235,-191,1723,-172.899994,-26.740000,241.220001,-1,-45,1352,-0.732000,-32.939999,989.664001,78,39,41,5460.000000,2730.000000,2870.000000,51,28.112793
Thu 1970-01-01 01:00:00 CET,14.0413,-1348,-220,1683,-188.720001,-30.799999,235.619995,-2,-45,1354,-1.464000,-32.939999,991.127991,85,44,43,5950.000000,3080.000000,3010.000000,51,28.112793
Thu 1970-01-01 01:00:00 CET,15.041,-1246,-241,1690,-174.440002,-33.740002,236.600006,-5,-48,1354,-3.660000,-35.136002,991.127991,77,42,44,5390.000000,2940.000000,3080.000000,54,28.295898
Thu 1970-01-01 01:00:00 CET,16.0409,-1275,-183,1805,-178.500000,-25.620001,252.699997,-4,-48,1354,-2.928000,-35.136002,991.127991,85,40,44,5950.000000,2800.000000,3080.000000,52,28.173828
Thu 1970-01-01 01:00:00 CET,17.0411,-1267,-193,1699,-177.380005,-27.020000,237.860001,-1,-44,1351,-0.732000,-32.208000,988.932007,79,45,41,5530.000000,3150.000000,2870.000000,53,28.234863
Thu 1970-01-01 01:00:00 CET,18.0416,-1317,-159,1762,-184.380005,-22.260000,246.680008,-4,-43,1350,-2.928000,-31.476000,988.200012,82,39,44,5740.000000,2730.000000,3080.000000,54,28.295898
Thu 1970-01-01 01:00:00 CET,19.0428,-1280,-186,1735,-179.199997,-26.040001,242.899994,0,-46,1355,0.000000,-33.672001,991.859985,88,41,43,6160.000000,2870.000000,3010.000000,54,28.295898
Thu 1970-01-01 01:00:00 CET,20.041,-1284,-168,1810,-179.759995,-23.520000,253.399994,-4,-46,1356,-2.928000,-33.672001,992.591980,85,44,42,5950.000000,3080.000000,2940.000000,54,28.295898
Thu 1970-01-01 01:00:00 CET,21.0412,-1318,-192,1806,-184.520004,-26.880001,252.839996,-3,-46,1345,-2.196000,-33.672001,984.539978,84,42,42,5880.000000,2940.000000,2940.000000,53,28.234863
Thu 1970-01-01 01:00:00 CET,22.0411,-1324,-212,1807,-185.360001,-29.680000,252.979996,-3,-42,1351,-2.196000,-30.743999,988.932007,81,42,43,5670.000000,2940.000000,3010.000000,54,28.295898
Thu 1970-01-01 01:00:00 CET,23.0412,-1283,-178,1762,-179.619995,-24.920000,246.680008,0,-42,1355,0.000000,-30.743999,991.859985,83,48,39,5810.000000,3360.000000,2730.000000,52,28.173828
Thu 1970-01-01 01:00:00 CET,24.0412,-1319,-161,1771,-184.660004,-22.540001,247.940002,-3,-44,1352,-2.196000,-32.208000,989.664001,78,41,46,5460.000000,2870.000000,3220.000000,54,28.295898
Thu 1970-01-01 01:00:00 CET,25.0416,-1288,-177,1741,-180.320007,-24.780001,243.740005,-5,-43,1351,-3.660000,-31.476000,988.932007,87,42,41,6090.000000,2940.000000,2870.000000,55,28.356934
Thu 1970-01-01 01:00:00 CET,26.0417,-1305,-165,1750,-182.699997,-23.100000,245.000000,-7,-48,1352,-5.124000,-35.136002,989.664001,82,43,39,5740.000000,3010.000000,2730.000000,53,28.234863
Thu 1970-01-01 01:00:00 CET,27.0421,-1331,-210,1786,-186.339996,-29.400000,250.040009,-2,-44,1355,-1.464000,-32.208000,991.859985,82,37,43,5740.000000,2590.000000,3010.000000,54,28.295898
Thu 1970-01-01 01:00:00 CET,28.0425,-1352,-161,1574,-189.279999,-22.540001,220.360001,-3,-50,1351,-2.196000,-36.599998,988.932007,82,43,45,5740.000000,3010.000000,3150.000000,55,28.356934
Thu 1970-01-01 01:00:00 CET,29.0414,-1303,-198,1729,-182.419998,-27.719999,242.059998,-2,-43,1353,-1.464000,-31.476000,990.395996,81,43,42,5670.000000,3010.000000,2940.000000,58,28.540039
Thu 1970-01-01 01:00:00 CET,30.0415,-1312,-146,1773,-183.680008,-20.440001,248.220001,-5,-39,1351,-3.660000,-28.548000,988.932007,82,41,46,5740.000000,2870.000000,3220.000000,54,28.295898
Thu 1970-01-01 01:00:00 CET,31.0415,-1360,-203,1724,-190.399994,-28.420000,241.360001,0,-44,1351,0.000000,-32.208000,988.932007,81,38,43,5670.000000,2660.000000,3010.000000,54,28.295898
Thu 1970-01-01 01:00:00 CET,32.0411,-1332,-220,1725,-186.479996,-30.799999,241.500000,-9,-42,1352,-6.588000,-30.743999,989.664001,80,42,40,5600.000000,2940.000000,2800.000000,52,28.173828
Thu 1970-01-01 01:00:00 CET,33.0413,-1309,-212,1778,-183.259995,-29.680000,248.919998,-7,-45,1354,-5.124000,-32.939999,991.127991,86,37,41,6020.000000,2590.000000,2870.000000,55,28.356934
Thu 1970-01-01 01:00:00 CET,34.0413,-1340,-144,1734,-187.600006,-20.160000,242.759995,-5,-49,1352,-3.660000,-35.868000,989.664001,76,41,47,5320.000000,2870.000000,3290.000000,56,28.417969
Thu 1970-01-01 01:00:00 CET,35.0414,-1339,-216,1710,-187.460007,-30.240000,239.399994,1,-44,1353,0.732000,-32.208000,990.395996,78,45,46,5460.000000,3150.000000,3220.000000,55,28.356934
Thu 1970-01-01 01:00:00 CET,36.0416,-1281,-197,1754,-179.339996,-27.580000,245.559998,-1,-41,1352,-0.732000,-30.011999,989.664001,77,40,45,5390.000000,2800.000000,3150.000000,57,28.479004
Thu 1970-01-01 01:00:00 CET,37.0428,-1326,-200,1855,-185.639999,-28.000000,259.700012,0,-38,1345,0.000000,-27.816000,984.539978,80,40,42,5600.000000,2800.000000,2940.000000,55,28.356934
Thu 1970-01-01 01:00:00 CET,38.0417,-1311,-198,1790,-183.539993,-27.719999,250.600006,-4,-42,1353,-2.928000,-30.743999,990.395996,78,43,39,5460.000000,3010.000000,2730.000000,56,28.417969
Thu 1970-01-01 01:00:00 CET,39.0414,-1304,-187,1752,-182.559998,-26.180000,245.279999,-1,-44,1350,-0.732000,-32.208000,988.200012,86,40,42,6020.000000,2800.000000,2940.000000,57,28.479004
Thu 1970-01-01 01:00:00 CET,40.0418,-1302,-211,1766,-182.279999,-29.540001,247.240005,-3,-40,1359,-2.196000,-29.279999,994.787964,86,40,40,6020.000000,2800.000000,2800.000000,57,28.479004
Thu 1970-01-01 01:00:00 CET,41.0417,-1270,-182,1743,-177.800003,-25.480000,244.020004,-5,-46,1355,-3.660000,-33.672001,991.859985,83,45,41,5810.000000,3150.000000,2870.000000,58,28.540039
Thu 1970-01-01 01:00:00 CET,42.04,-1312,-203,1734,-183.680008,-28.420000,242.759995,-3,-44,1350,-2.196000,-32.208000,988.200012,79,39,45,5530.000000,2730.000000,3150.000000,57,28.479004
Thu 1970-01-01 01:00:00 CET,43.0403,-1332,-207,1806,-186.479996,-28.980000,252.839996,-2,-46,1349,-1.464000,-33.672001,987.468018,80,40,45,5600.000000,2800.000000,3150.000000,57,28.479004
Thu 1970-01-01 01:00:00 CET,44.0413,-1303,-237,1833,-182.419998,-33.180000,256.619995,-1,-41,1351,-0.732000,-30.011999,988.932007,86,41,40,6020.000000,2870.000000,2800.000000,57,28.479004
Thu 1970-01-01 01:00:00 CET,45.0418,-1290,-200,1804,-180.600006,-28.000000,252.559998,-3,-41,1348,-2.196000,-30.011999,986.735962,78,43,41,5460.000000,3010.000000,2870.000000,58,28.540039
Thu 1970-01-01 01:00:00 CET,46.0434,-1302,-195,1844,-182.279999,-27.299999,258.160004,0,-45,1351,0.000000,-32.939999,988.932007,84,46,45,5880.000000,3220.000000,3150.000000,59,28.601074
Thu 1970-01-01 01:00:00 CET,47.0412,-1288,-169,1795,-180.320007,-23.660000,251.300003,-5,-47,1353,-3.660000,-34.403999,990.395996,78,42,42,5460.000000,2940.000000,2940.000000,58,28.540039
Thu 1970-01-01 01:00:00 CET,48.0417,-1282,-171,1790,-179.479996,-23.940001,250.600006,0,-43,1355,0.000000,-31.476000,991.859985,85,42,42,5950.000000,2940.000000,2940.000000,60,28.662109
Thu 1970-01-01 01:00:00 CET,49.0418,-1302,-233,1811,-182.279999,-32.619999,253.540009,1,-46,1349,0.732000,-33.672001,987.468018,81,44,41,5670.000000,3080.000000,2870.000000,58,28.540039
Thu 1970-01-01 01:00:00 CET,50.0417,-1303,-184,1838,-182.419998,-25.760000,257.320007,-1,-46,1354,-0.732000,-33.672001,991.127991,80,46,39,5600.000000,3220.000000,2730.000000,56,28.417969
Thu 1970-01-01 01:00:00 CET,51.0416,-1263,-174,1788,-176.820007,-24.360001,250.320007,-6,-44,1352,-4.392000,-32.208000,989.664001,78,38,42,5460.000000,2660.000000,2940.000000,60,28.662109
Thu 1970-01-01 01:00:00 CET,52.0417,-1314,-185,1834,-183.960007,-25.900000,256.760010,-2,-44,1352,-1.464000,-32.208000,989.664001,82,38,43,5740.000000,2660.000000,3010.000000,59,28.601074
Thu 1970-01-01 01:00:00 CET,53.0417,-1312,-140,1828,-183.680008,-19.600000,255.919998,-2,-41,1358,-1.464000,-30.011999,994.055969,78,40,43,5460.000000,2800.000000,3010.000000,58,28.540039
Thu 1970-01-01 01:00:00 CET,54.041,-1302,-139,1739,-182.279999,-19.460001,243.460007,0,-45,1354,0.000000,-32.939999,991.127991,80,40,42,5600.000000,2800.000000,2940.000000,57,28.479004
Thu 1970-01-01 01:00:00 CET,55.0411,-1289,-167,1822,-180.460007,-23.379999,255.080002,-4,-45,1352,-2.928000,-32.939999,989.664001,76,39,45,5320.000000,2730.000000,3150.000000,60,28.662109
Thu 1970-01-01 01:00:00 CET,56.0411,-1343,-155,1813,-188.020004,-21.700001,253.820007,1,-44,1349,0.732000,-32.208000,987.468018,85,44,42,5950.000000,3080.000000,2940.000000,58,28.540039
Thu 1970-01-01 01:00:00 CET,57.0411,-1318,-149,1851,-184.520004,-20.860001,259.140015,-7,-42,1350,-5.124000,-30.743999,988.200012,77,42,42,5390.000000,2940.000000,2940.000000,62,28.784180
Thu 1970-01-01 01:00:00 CET,58.0412,-1327,-209,1797,-185.779999,-29.260000,251.580002,-6,-45,1351,-4.392000,-32.939999,988.932007,82,40,40,5740.000000,2800.000000,2800.000000,57,28.479004
Thu 1970-01-01 01:00:00 CET,59.041,-1314,-137,1812,-183.960007,-19.180000,253.680008,-7,-45,1355,-5.124000,-32.939999,991.859985,83,41,42,5810.000000,2870.000000,2940.000000,60,28.662109
Thu 1970-01-01 01:00:00 CET,60.0414,-1322,-165,1711,-185.080002,-23.100000,239.540009,-4,-47,1349,-2.928000,-34.403999,987.468018,84,40,40,5880.000000,2800.000000,2800.000000,58,28.540039
Thu 1970-01-01 01:00:00 CET,61.0412,-1261,-160,1748,-176.539993,-22.400000,244.720001,-3,-47,1354,-2.196000,-34.403999,991.127991,78,41,41,5460.000000,2870.000000,2870.000000,60,28.662109
Thu 1970-01-01 01:00:00 CET,62.0411,-1292,-211,1849,-180.880005,-29.540001,258.860016,1,-44,1353,0.732000,-32.208000,990.395996,88,42,46,6160.000000,2940.000000,3220.000000,58,28.540039
Thu 1970-01-01 01:00:00 CET,63.0412,-1250,-191,1803,-175.000000,-26.740000,252.419998,-2,-44,1347,-1.464000,-32.208000,986.003967,81,40,40,5670.000000,2800.000000,2800.000000,62,28.784180
Thu 1970-01-01 01:00:00 CET,64.0435,-1253,-168,1758,-175.419998,-23.520000,246.119995,-5,-45,1348,-3.660000,-32.939999,986.735962,79,37,42,5530.000000,2590.000000,2940.000000,60,28.662109
Thu 1970-01-01 01:00:00 CET,65.0414,-1244,-200,1761,-174.160004,-28.000000,246.540009,-3,-46,1353,-2.196000,-33.672001,990.395996,82,41,43,5740.000000,2870.000000,3010.000000,62,28.784180
Thu 1970-01-01 01:00:00 CET,66.0416,-1255,-152,1783,-175.699997,-21.280001,249.619995,-6,-43,1350,-4.392000,-31.476000,988.200012,89,39,41,6230.000000,2730.000000,2870.000000,60,28.662109
Thu 1970-01-01 01:00:00 CET,67.041,-1284,-187,1739,-179.759995,-26.180000,243.460007,-3,-49,1347,-2.196000,-35.868000,986.003967,83,40,42,5810.000000,2800.000000,2940.000000,62,28.784180
Thu 1970-01-01 01:00:00 CET,68.0414,-1304,-183,1739,-182.559998,-25.620001,243.460007,-4,-43,1351,-2.928000,-31.476000,988.932007,89,41,43,6230.000000,2870.000000,3010.000000,63,28.845215
Thu 1970-01-01 01:00:00 CET,69.0418,-1315,-194,1882,-184.100006,-27.160000,263.480011,-4,-45,1357,-2.928000,-32.939999,993.323975,86,42,43,6020.000000,2940.000000,3010.000000,59,28.601074
Thu 1970-01-01 01:00:00 CET,70.0422,-1349,-225,1704,-188.860001,-31.500000,238.559998,-2,-46,1355,-1.464000,-33.672001,991.859985,84,41,45,5880.000000,2870.000000,3150.000000,61,28.723145
Thu 1970-01-01 01:00:00 CET,71.0417,-1333,-169,1798,-186.619995,-23.660000,251.720001,0,-44,1353,0.000000,-32.208000,990.395996,84,39,42,5880.000000,2730.000000,2940.000000,61,28.723145
Thu 1970-01-01 01:00:00 CET,72.0418,-1287,-149,1791,-180.180008,-20.860001,250.740005,-2,-46,1351,-1.464000,-33.672001,988.932007,85,42,43,5950.000000,2940.000000,3010.000000,61,28.723145
Thu 1970-01-01 01:00:00 CET,73.0425,-1320,-211,1728,-184.800003,-29.540001,241.919998,0,-44,1345,0.000000,-32.208000,984.539978,86,39,41,6020.000000,2730.000000,2870.000000,62,28.784180
Thu 1970-01-01 01:00:00 CET,74.0413,-1252,-224,1863,-175.279999,-31.360001,260.820007,-3,-43,1343,-2.196000,-31.476000,983.075989,88,43,43,6160.000000,3010.000000,3010.000000,61,28.723145
Thu 1970-01-01 01:00:00 CET,75.0379,-1289,-220,1717,-180.460007,-30.799999,240.380005,-5,-36,1351,-3.660000,-26.351999,988.932007,81,39,40,5670.000000,2730.000000,2800.000000,65,28.967285
Thu 1970-01-01 01:00:00 CET,76.0414,-1313,-182,1840,-183.820007,-25.480000,257.600006,-2,-44,1353,-1.464000,-32.208000,990.395996,85,43,41,5950.000000,3010.000000,2870.000000,59,28.601074
Thu 1970-01-01 01:00:00 CET,77.041,-1286,-215,1811,-180.039993,-30.100000,253.540009,1,-44,1355,0.732000,-32.208000,991.859985,85,43,41,5950.000000,3010.000000,2870.000000,62,28.784180
Thu 1970-01-01 01:00:00 CET,78.0416,-1321,-234,1873,-184.940002,-32.759998,262.220001,-5,-47,1356,-3.660000,-34.403999,992.591980,78,40,44,5460.000000,2800.000000,3080.000000,62,28.784180
Thu 1970-01-01 01:00:00 CET,79.0421,-1271,-262,1914,-177.940002,-36.680000,267.959991,-3,-41,1352,-2.196000,-30.011999,989.664001,81,44,42,5670.000000,3080.000000,2940.000000,64,28.906250
Thu 1970-01-01 01:00:00 CET,80.0411,-1283,-251,1773,-179.619995,-35.139999,248.220001,-3,-47,1350,-2.196000,-34.403999,988.200012,83,44,43,5810.000000,3080.000000,3010.000000,63,28.845215
Thu 1970-01-01 01:00:00 CET,81.041,-1284,-197,1815,-179.759995,-27.580000,254.100006,-3,-46,1350,-2.196000,-33.672001,988.200012,86,38,44,6020.000000,2660.000000,3080.000000,63,28.845215
Thu 1970-01-01 01:00:00 CET,82.0438,-1259,-179,1845,-176.259995,-25.059999,258.299988,-5,-43,1349,-3.660000,-31.476000,987.468018,86,45,43,6020.000000,3150.000000,3010.000000,64,28.906250
Thu 1970-01-01 01:00:00 CET,83.0414,-1272,-241,1830,-178.080002,-33.740002,256.200012,-4,-48,1354,-2.928000,-35.136002,991.127991,82,43,38,5740.000000,3010.000000,2660.000000,63,28.845215
Thu 1970-01-01 01:00:00 CET,84.0414,-1308,-212,1839,-183.119995,-29.680000,257.459991,-1,-47,1349,-0.732000,-34.403999,987.468018,85,42,43,5950.000000,2940.000000,3010.000000,65,28.967285
Thu 1970-01-01 01:00:00 CET,85.0412,-1273,-200,1730,-178.220001,-28.000000,242.199997,-3,-42,1351,-2.196000,-30.743999,988.932007,85,44,42,5950.000000,3080.000000,2940.000000,63,28.845215
Thu 1970-01-01 01:00:00 CET,86.0414,-1284,-194,1822,-179.759995,-27.160000,255.080002,-2,-42,1348,-1.464000,-30.743999,986.735962,84,43,45,5880.000000,3010.000000,3150.000000,62,28.784180
Thu 1970-01-01 01:00:00 CET,87.0438,-1249,-237,1765,-174.860001,-33.180000,247.100006,-3,-46,1348,-2.196000,-33.672001,986.735962,82,42,41,5740.000000,2940.000000,2870.000000,63,28.845215
Thu 1970-01-01 01:00:00 CET,88.0418,-1280,-156,1771,-179.199997,-21.840000,247.940002,2,-46,1355,1.464000,-33.672001,991.859985,85,41,42,5950.000000,2870.000000,2940.000000,61,28.723145
Thu 1970-01-01 01:00:00 CET,89.0411,-1279,-215,1786,-179.059998,-30.100000,250.040009,-5,-43,1348,-3.660000,-31.476000,986.735962,88,39,39,6160.000000,2730.000000,2730.000000,63,28.845215
Thu 1970-01-01 01:00:00 CET,90.0412,-1320,-183,1773,-184.800003,-25.620001,248.220001,-2,-42,1352,-1.464000,-30.743999,989.664001,82,43,45,5740.000000,3010.000000,3150.000000,66,29.028320
Thu 1970-01-01 01:00:00 CET,91.0426,-1258,-186,1864,-176.119995,-26.040001,260.959991,-4,-43,1351,-2.928000,-31.476000,988.932007,85,45,42,5950.000000,3150.000000,2940.000000,66,29.028320
Thu 1970-01-01 01:00:00 CET,92.0404,-1245,-191,1829,-174.300003,-26.740000,256.059998,-1,-42,1347,-0.732000,-30.743999,986.003967,86,39,42,6020.000000,2730.000000,2940.000000,64,28.906250
Thu 1970-01-01 01:00:00 CET,93.04,-1284,-180,1923,-179.759995,-25.200001,269.220001,-2,-43,1349,-1.464000,-31.476000,987.468018,82,44,41,5740.000000,3080.000000,2870.000000,67,29.089355
Thu 1970-01-01 01:00:00 CET,94.0407,-1257,-210,1829,-175.979996,-29.400000,256.059998,-5,-48,1356,-3.660000,-35.136002,992.591980,82,43,43,5740.000000,3010.000000,3010.000000,66,29.028320
Thu 1970-01-01 01:00:00 CET,95.0414,-1283,-202,1867,-179.619995,-28.280001,261.380005,-1,-43,1352,-0.732000,-31.476000,989.664001,80,39,41,5600.000000,2730.000000,2870.000000,68,29.150391
Thu 1970-01-01 01:00:00 CET,96.0414,-1272,-203,1771,-178.080002,-28.420000,247.940002,-3,-47,1355,-2.196000,-34.403999,991.859985,85,39,44,5950.000000,2730.000000,3080.000000,65,28.967285
Thu 1970-01-01 01:00:00 CET,97.0415,-1276,-202,1766,-178.639999,-28.280001,247.240005,1,-45,1348,0.732000,-32.939999,986.735962,86,39,46,6020.000000,2730.000000,3220.000000,66,29.028320
Thu 1970-01-01 01:00:00 CET,98.0415,-1289,-173,1781,-180.460007,-24.219999,249.339996,2,-49,1351,1.464000,-35.868000,988.932007,86,43,45,6020.000000,3010.000000,3150.000000,67,29.089355
Thu 1970-01-01 01:00:00 CET,99.0417,-1292,-167,1815,-180.880005,-23.379999,254.100006,-4,-46,1349,-2.928000,-33.672001,987.468018,85,47,41,5950.000000,3290.000000,2870.000000,66,29.028320
Thu 1970-01-01 01:00:00 CET,100.043,-1259,-197,1810,-176.259995,-27.580000,253.399994,-1,-43,1349,-0.732000,-31.476000,987.468018,81,42,40,5670.000000,2940.000000,2800.000000,66,29.028320
Thu 1970-01-01 01:00:00 CET,101.041,-1330,-176,1785,-186.199997,-24.639999,249.899994,-1,-42,1350,-0.732000,-30.743999,988.200012,85,42,44,5950.000000,2940.000000,3080.000000,67,29.089355
Thu 1970-01-01 01:00:00 CET,102.042,-1248,-173,1751,-174.720001,-24.219999,245.139999,-8,-46,1354,-5.856000,-33.672001,991.127991,84,41,43,5880.000000,2870.000000,3010.000000,66,29.028320
Thu 1970-01-01 01:00:00 CET,103.042,-1244,-160,1828,-174.160004,-22.400000,255.919998,-7,-45,1347,-5.124000,-32.939999,986.003967,88,39,39,6160.000000,2730.000000,2730.000000,68,29.150391
Thu 1970-01-01 01:00:00 CET,104.042,-1242,-119,1785,-173.880005,-16.660000,249.899994,-8,-49,1351,-5.856000,-35.868000,988.932007,86,40,39,6020.000000,2800.000000,2730.000000,65,28.967285
Thu 1970-01-01 01:00:00 CET,105.041,-1319,-205,1830,-184.660004,-28.700001,256.200012,-5,-45,1351,-3.660000,-32.939999,988.932007,82,38,43,5740.000000,2660.000000,3010.000000,68,29.150391
Thu 1970-01-01 01:00:00 CET,106.041,-1296,-183,1843,-181.440002,-25.620001,258.019989,-2,-46,1350,-1.464000,-33.672001,988.200012,92,43,42,6440.000000,3010.000000,2940.000000,68,29.150391
Thu 1970-01-01 01:00:00 CET,107.041,-1257,-186,1778,-175.979996,-26.040001,248.919998,-5,-40,1350,-3.660000,-29.279999,988.200012,88,44,43,6160.000000,3080.000000,3010.000000,65,28.967285
Thu 1970-01-01 01:00:00 CET,108.043,-1306,-232,1811,-182.839996,-32.480000,253.540009,-4,-46,1352,-2.928000,-33.672001,989.664001,78,47,41,5460.000000,3290.000000,2870.000000,67,29.089355
Thu 1970-01-01 01:00:00 CET,109.043,-1264,-160,1853,-176.960007,-22.400000,259.420013,-2,-42,1352,-1.464000,-30.743999,989.664001,91,41,40,6370.000000,2870.000000,2800.000000,67,29.089355
Thu 1970-01-01 01:00:00 CET,110.041,-1307,-211,1845,-182.979996,-29.540001,258.299988,-3,-43,1353,-2.196000,-31.476000,990.395996,87,38,41,6090.000000,2660.000000,2870.000000,69,29.211426
Thu 1970-01-01 01:00:00 CET,111.043,-1303,-160,1818,-182.419998,-22.400000,254.520004,-6,-48,1347,-4.392000,-35.136002,986.003967,89,38,42,6230.000000,2660.000000,2940.000000,68,29.150391
Thu 1970-01-01 01:00:00 CET,112.041,-1319,-110,1904,-184.660004,-15.400000,266.559998,-1,-43,1352,-0.732000,-31.476000,989.664001,87,44,41,6090.000000,3080.000000,2870.000000,68,29.150391
Thu 1970-01-01 01:00:00 CET,113.041,-1309,-164,1904,-183.259995,-22.960001,266.559998,-3,-43,1352,-2.196000,-31.476000,989.664001,87,40,44,6090.000000,2800.000000,3080.000000,70,29.272461
Thu 1970-01-01 01:00:00 CET,114.041,-1328,-193,1926,-185.919998,-27.020000,269.640015,-6,-44,1349,-4.392000,-32.208000,987.468018,83,42,42,5810.000000,2940.000000,2940.000000,70,29.272461
Thu 1970-01-01 01:00:00 CET,115.041,-1251,-138,1871,-175.139999,-19.320000,261.940002,-5,-47,1352,-3.660000,-34.403999,989.664001,86,41,44,6020.000000,2870.000000,3080.000000,68,29.150391
Thu 1970-01-01 01:00:00 CET,116.042,-1317,-197,1913,-184.380005,-27.580000,267.820007,-4,-45,1351,-2.928000,-32.939999,988.932007,82,42,41,5740.000000,2940.000000,2870.000000,68,29.150391
Thu 1970-01-01 01:00:00 CET,117.042,-1298,-167,1933,-181.720001,-23.379999,270.619995,2,-45,1354,1.464000,-32.939999,991.127991,82,42,42,5740.000000,2940.000000,2940.000000,68,29.150391
Thu 1970-01-01 01:00:00 CET,118.042,-1303,-168,1882,-182.419998,-23.520000,263.480011,-2,-42,1352,-1.464000,-30.743999,989.664001,81,43,41,5670.000000,3010.000000,2870.000000,71,29.333496
Thu 1970-01-01 01:00:00 CET,119.041,-1302,-106,1886,-182.279999,-14.840000,264.040009,-2,-45,1351,-1.464000,-32.939999,988.932007,82,45,40,5740.000000,3150.000000,2800.000000,70,29.272461
Thu 1970-01-01 01:00:00 CET,120.042,-1328,-182,1923,-185.919998,-25.480000,269.220001,-5,-45,1355,-3.660000,-32.939999,991.859985,88,44,40,6160.000000,3080.000000,2800.000000,68,29.150391
Thu 1970-01-01 01:00:00 CET,121.041,-1277,-127,1855,-178.779999,-17.780001,259.700012,-1,-43,1355,-0.732000,-31.476000,991.859985,85,45,45,5950.000000,3150.000000,3150.000000,68,29.150391
Thu 1970-01-01 01:00:00 CET,122.041,-1277,-178,1872,-178.779999,-24.920000,262.079987,-3,-47,1349,-2.196000,-34.403999,987.468018,88,47,42,6160.000000,3290.000000,2940.000000,68,29.150391
Thu 1970-01-01 01:00:00 CET,123.042,-1300,-219,1860,-182.000000,-30.660000,260.399994,-3,-43,1351,-2.196000,-31.476000,988.932007,89,42,46,6230.000000,2940.000000,3220.000000,71,29.333496
Thu 1970-01-01 01:00:00 CET,124.042,-1310,-194,1880,-183.399994,-27.160000,263.200012,-2,-44,1353,-1.464000,-32.208000,990.395996,85,47,42,5950.000000,3290.000000,2940.000000,68,29.150391
Thu 1970-01-01 01:00:00 CET,125.041,-1282,-153,1827,-179.479996,-21.420000,255.779999,-4,-47,1352,-2.928000,-34.403999,989.664001,85,45,41,5950.000000,3150.000000,2870.000000,70,29.272461
Thu 1970-01-01 01:00:00 CET,126.041,-1303,-181,1829,-182.419998,-25.340000,256.059998,-4,-47,1346,-2.928000,-34.403999,985.271973,84,44,41,5880.000000,3080.000000,2870.000000,71,29.333496
Thu 1970-01-01 01:00:00 CET,127.043,-1358,-137,1893,-190.119995,-19.180000,265.019989,-1,-45,1358,-0.732000,-32.939999,994.055969,85,44,41,5950.000000,3080.000000,2870.000000,69,29.211426
Thu 1970-01-01 01:00:00 CET,128.041,-1300,-138,1851,-182.000000,-19.320000,259.140015,-3,-44,1352,-2.196000,-32.208000,989.664001,91,39,41,6370.000000,2730.000000,2870.000000,71,29.333496
Thu 1970-01-01 01:00:00 CET,129.041,-1328,-151,1841,-185.919998,-21.139999,257.739990,-3,-44,1348,-2.196000,-32.208000,986.735962,87,43,40,6090.000000,3010.000000,2800.000000,71,29.333496
Thu 1970-01-01 01:00:00 CET,130.041,-1321,-132,1862,-184.940002,-18.480000,260.679993,-2,-44,1347,-1.464000,-32.208000,986.003967,91,43,38,6370.000000,3010.000000,2660.000000,69,29.211426
Thu 1970-01-01 01:00:00 CET,131.04,-1324,-167,1763,-185.360001,-23.379999,246.820007,-5,-46,1355,-3.660000,-33.672001,991.859985,89,46,42,6230.000000,3220.000000,2940.000000,74,29.516602
Thu 1970-01-01 01:00:00 CET,132.039,-1328,-208,1798,-185.919998,-29.120001,251.720001,-2,-45,1351,-1.464000,-32.939999,988.932007,87,42,40,6090.000000,2940.000000,2800.000000,72,29.394531
Thu 1970-01-01 01:00:00 CET,133.041,-1332,-177,1775,-186.479996,-24.780001,248.500000,-1,-45,1345,-0.732000,-32.939999,984.539978,88,39,38,6160.000000,2730.000000,2660.000000,74,29.516602
Thu 1970-01-01 01:00:00 CET,134.041,-1316,-201,1822,-184.240005,-28.139999,255.080002,-3,-43,1351,-2.196000,-31.476000,988.932007,81,39,45,5670.000000,2730.000000,3150.000000,71,29.333496
Thu 1970-01-01 01:00:00 CET,135.041,-1312,-178,1853,-183.680008,-24.920000,259.420013,-6,-43,1351,-4.392000,-31.476000,988.932007,87,40,39,6090.000000,2800.000000,2730.000000,72,29.394531
Thu 1970-01-01 01:00:00 CET,136.043,-1293,-152,1789,-181.020004,-21.280001,250.460007,-5,-43,1350,-3.660000,-31.476000,988.200012,86,42,43,6020.000000,2940.000000,3010.000000,71,29.333496
Thu 1970-01-01 01:00:00 CET,137.044,-1364,-141,1811,-190.960007,-19.740000,253.540009,-5,-45,1347,-3.660000,-32.939999,986.003967,80,42,42,5600.000000,2940.000000,2940.000000,71,29.333496
Thu 1970-01-01 01:00:00 CET,138.042,-1297,-168,1775,-181.580002,-23.520000,248.500000,2,-46,1352,1.464000,-33.672001,989.664001,88,42,45,6160.000000,2940.000000,3150.000000,73,29.455566
Thu 1970-01-01 01:00:00 CET,139.044,-1317,-195,1794,-184.380005,-27.299999,251.160004,-4,-42,1350,-2.928000,-30.743999,988.200012,78,46,42,5460.000000,3220.000000,2940.000000,74,29.516602
Thu 1970-01-01 01:00:00 CET,140.042,-1341,-181,1856,-187.740005,-25.340000,259.839996,-3,-45,1349,-2.196000,-32.939999,987.468018,78,44,42,5460.000000,3080.000000,2940.000000,71,29.333496
Thu 1970-01-01 01:00:00 CET,141.043,-1313,-158,1871,-183.820007,-22.120001,261.940002,-3,-44,1353,-2.196000,-32.208000,990.395996,95,44,41,6650.000000,3080.000000,2870.000000,74,29.516602
Thu 1970-01-01 01:00:00 CET,142.042,-1311,-200,1875,-183.539993,-28.000000,262.500000,-1,-43,1351,-0.732000,-31.476000,988.932007,81,43,42,5670.000000,3010.000000,2940.000000,72,29.394531
Thu 1970-01-01 01:00:00 CET,143.041,-1352,-185,1786,-189.279999,-25.900000,250.040009,0,-41,1349,0.000000,-30.011999,987.468018,86,45,40,6020.000000,3150.000000,2800.000000,75,29.577637
Thu 1970-01-01 01:00:00 CET,144.041,-1312,-171,1845,-183.680008,-23.940001,258.299988,-2,-44,1351,-1.464000,-32.208000,988.932007,82,44,44,5740.000000,3080.000000,3080.000000,75,29.577637
Thu 1970-01-01 01:00:00 CET,145.039,-1377,-193,1789,-192.779999,-27.020000,250.460007,-3,-45,1351,-2.196000,-32.939999,988.932007,85,41,42,5950.000000,2870.000000,2940.000000,71,29.333496
Thu 1970-01-01 01:00:00 CET,146.038,-1351,-190,1954,-189.139999,-26.600000,273.559998,-2,-44,1348,-1.464000,-32.208000,986.735962,84,43,43,5880.000000,3010.000000,3010.000000,72,29.394531
Thu 1970-01-01 01:00:00 CET,147.042,-1337,-170,1854,-187.180008,-23.799999,259.559998,1,-46,1352,0.732000,-33.672001,989.664001,87,43,41,6090.000000,3010.000000,2870.000000,73,29.455566
Thu 1970-01-01 01:00:00 CET,148.041,-1311,-135,1841,-183.539993,-18.900000,257.739990,-7,-49,1351,-5.124000,-35.868000,988.932007,82,44,42,5740.000000,3080.000000,2940.000000,72,29.394531
Thu 1970-01-01 01:00:00 CET,149.042,-1306,-187,1855,-182.839996,-26.180000,259.700012,-5,-47,1351,-3.660000,-34.403999,988.932007,84,41,41,5880.000000,2870.000000,2870.000000,73,29.455566
Thu 1970-01-01 01:00:00 CET,150.042,-1347,-168,1932,-188.580002,-23.520000,270.480011,-2,-44,1354,-1.464000,-32.208000,991.127991,88,44,43,6160.000000,3080.000000,3010.000000,71,29.333496
Thu 1970-01-01 01:00:00 CET,151.042,-1340,-165,1884,-187.600006,-23.100000,263.760010,-4,-46,1349,-2.928000,-33.672001,987.468018,85,44,41,5950.000000,3080.000000,2870.000000,74,29.516602
Thu 1970-01-01 01:00:00 CET,152.042,-1339,-182,1873,-187.460007,-25.480000,262.220001,-1,-50,1345,-0.732000,-36.599998,984.539978,84,39,41,5880.000000,2730.000000,2870.000000,72,29.394531
Thu 1970-01-01 01:00:00 CET,153.042,-1343,-177,1889,-188.020004,-24.780001,264.459991,-4,-42,1350,-2.928000,-30.743999,988.200012,84,42,42,5880.000000,2940.000000,2940.000000,76,29.638672
Thu 1970-01-01 01:00:00 CET,154.043,-1333,-163,1935,-186.619995,-22.820000,270.899994,-1,-46,1350,-0.732000,-33.672001,988.200012,87,42,39,6090.000000,2940.000000,2730.000000,75,29.577637
Thu 1970-01-01 01:00:00 CET,155.042,-1349,-129,1911,-188.860001,-18.059999,267.540009,-3,-46,1352,-2.196000,-33.672001,989.664001,85,43,41,5950.000000,3010.000000,2870.000000,75,29.577637
Thu 1970-01-01 01:00:00 CET,156.042,-1298,-166,1741,-181.720001,-23.240000,243.740005,-4,-48,1346,-2.928000,-35.136002,985.271973,85,46,43,5950.000000,3220.000000,3010.000000,76,29.638672
Thu 1970-01-01 01:00:00 CET,157.041,-1354,-156,1736,-189.559998,-21.840000,243.040009,-3,-43,1346,-2.196000,-31.476000,985.271973,86,43,43,6020.000000,3010.000000,3010.000000,75,29.577637
Thu 1970-01-01 01:00:00 CET,158.041,-1347,-133,1797,-188.580002,-18.620001,251.580002,-2,-45,1348,-1.464000,-32.939999,986.735962,91,43,41,6370.000000,3010.000000,2870.000000,78,29.760742
Thu 1970-01-01 01:00:00 CET,159.042,-1340,-139,1888,-187.600006,-19.460001,264.320007,1,-44,1351,0.732000,-32.208000,988.932007,87,44,40,6090.000000,3080.000000,2800.000000,75,29.577637
Thu 1970-01-01 01:00:00 CET,160.042,-1378,-184,1815,-192.919998,-25.760000,254.100006,-3,-43,1350,-2.196000,-31.476000,988.200012,86,49,42,6020.000000,3430.000000,2940.000000,75,29.577637
Thu 1970-01-01 01:00:00 CET,161.042,-1335,-197,1770,-186.899994,-27.580000,247.800003,0,-44,1351,0.000000,-32.208000,988.932007,83,39,40,5810.000000,2730.000000,2800.000000,77,29.699707
Thu 1970-01-01 01:00:00 CET,162.042,-1324,-180,1868,-185.360001,-25.200001,261.519989,-1,-44,1353,-0.732000,-32.208000,990.395996,87,38,44,6090.000000,2660.000000,3080.000000,73,29.455566
Thu 1970-01-01 01:00:00 CET,163.042,-1288,-211,1775,-180.320007,-29.540001,248.500000,-3,-45,1351,-2.196000,-32.939999,988.932007,88,42,43,6160.000000,2940.000000,3010.000000,77,29.699707
Thu 1970-01-01 01:00:00 CET,164.041,-1353,-147,1759,-189.419998,-20.580000,246.259995,-1,-50,1355,-0.732000,-36.599998,991.859985,88,43,40,6160.000000,3010.000000,2800.000000,74,29.516602
Thu 1970-01-01 01:00:00 CET,165.042,-1294,-216,1890,-181.160004,-30.240000,264.600006,-2,-43,1348,-1.464000,-31.476000,986.735962,87,44,40,6090.000000,3080.000000,2800.000000,76,29.638672
Thu 1970-01-01 01:00:00 CET,166.041,-1342,-137,1825,-187.880005,-19.180000,255.500000,-1,-48,1353,-0.732000,-35.136002,990.395996,78,40,42,5460.000000,2800.000000,2940.000000,77,29.699707
Thu 1970-01-01 01:00:00 CET,167.042,-1374,-138,1877,-192.360001,-19.320000,262.779999,1,-46,1348,0.732000,-33.672001,986.735962,91,42,39,6370.000000,2940.000000,2730.000000,75,29.577637
Thu 1970-01-01 01:00:00 CET,168.041,-1302,-165,1810,-182.279999,-23.100000,253.399994,-4,-44,1353,-2.928000,-32.208000,990.395996,81,42,42,5670.000000,2940.000000,2940.000000,78,29.760742
Thu 1970-01-01 01:00:00 CET,169.041,-1314,-166,1863,-183.960007,-23.240000,260.820007,-5,-42,1351,-3.660000,-30.743999,988.932007,87,42,39,6090.000000,2940.000000,2730.000000,77,29.699707
Thu 1970-01-01 01:00:00 CET,170.041,-1350,-151,1827,-189.000000,-21.139999,255.779999,-4,-45,1350,-2.928000,-32.939999,988.200012,89,41,39,6230.000000,2870.000000,2730.000000,78,29.760742
Thu 1970-01-01 01:00:00 CET,171.041,-1302,-171,1788,-182.279999,-23.940001,250.320007,-6,-47,1349,-4.392000,-34.403999,987.468018,85,45,40,5950.000000,3150.000000,2800.000000,77,29.699707
Thu 1970-01-01 01:00:00 CET,172.043,-1355,-171,1879,-189.699997,-23.940001,263.059998,-2,-47,1348,-1.464000,-34.403999,986.735962,87,40,39,6090.000000,2800.000000,2730.000000,78,29.760742
Thu 1970-01-01 01:00:00 CET,173.041,-1331,-171,1848,-186.339996,-23.940001,258.720001,-4,-46,1352,-2.928000,-33.672001,989.664001,83,41,44,5810.000000,2870.000000,3080.000000,80,29.882812
Thu 1970-01-01 01:00:00 CET,174.042,-1342,-200,1831,-187.880005,-28.000000,256.339996,-2,-48,1351,-1.464000,-35.136002,988.932007,89,43,38,6230.000000,3010.000000,2660.000000,78,29.760742
Thu 1970-01-01 01:00:00 CET,175.041,-1363,-170,1851,-190.820007,-23.799999,259.140015,-3,-45,1351,-2.196000,-32.939999,988.932007,83,44,43,5810.000000,3080.000000,3010.000000,77,29.699707
Thu 1970-01-01 01:00:00 CET,176.041,-1369,-182,1799,-191.660004,-25.480000,251.860001,-3,-46,1353,-2.196000,-33.672001,990.395996,85,43,40,5950.000000,3010.000000,2800.000000,79,29.821777
Thu 1970-01-01 01:00:00 CET,177.041,-1346,-204,1880,-188.440002,-28.559999,263.200012,-2,-47,1353,-1.464000,-34.403999,990.395996,90,44,45,6300.000000,3080.000000,3150.000000,79,29.821777
Thu 1970-01-01 01:00:00 CET,178.041,-1303,-210,1815,-182.419998,-29.400000,254.100006,-1,-41,1350,-0.732000,-30.011999,988.200012,89,43,40,6230.000000,3010.000000,2800.000000,80,29.882812
Thu 1970-01-01 01:00:00 CET,179.041,-1299,-190,1844,-181.860001,-26.600000,258.160004,1,-45,1344,0.732000,-32.939999,983.807983,90,39,44,6300.000000,2730.000000,3080.000000,80,29.882812
Thu 1970-01-01 01:00:00 CET,180.041,-1315,-201,1764,-184.100006,-28.139999,246.960007,-5,-46,1349,-3.660000,-33.672001,987.468018,90,42,40,6300.000000,2940.000000,2800.000000,81,29.943848
Thu 1970-01-01 01:00:00 CET,181.042,-1335,-240,1843,-186.899994,-33.599998,258.019989,-4,-46,1350,-2.928000,-33.672001,988.200012,81,46,41,5670.000000,3220.000000,2870.000000,76,29.638672
Thu 1970-01-01 01:00:00 CET,182.041,-1351,-215,1794,-189.139999,-30.100000,251.160004,-2,-45,1352,-1.464000,-32.939999,989.664001,90,42,39,6300.000000,2940.000000,2730.000000,77,29.699707
Thu 1970-01-01 01:00:00 CET,183.041,-1329,-238,1818,-186.059998,-33.320000,254.520004,-5,-43,1352,-3.660000,-31.476000,989.664001,88,42,40,6160.000000,2940.000000,2800.000000,80,29.882812
Thu 1970-01-01 01:00:00 CET,184.041,-1278,-193,1884,-178.919998,-27.020000,263.760010,-4,-42,1352,-2.928000,-30.743999,989.664001,85,45,39,5950.000000,3150.000000,2730.000000,81,29.943848
Thu 1970-01-01 01:00:00 CET,185.041,-1303,-190,1830,-182.419998,-26.600000,256.200012,-4,-42,1350,-2.928000,-30.743999,988.200012,86,41,46,6020.000000,2870.000000,3220.000000,77,29.699707
Thu 1970-01-01 01:00:00 CET,186.043,-1310,-219,1796,-183.399994,-30.660000,251.440002,-2,-45,1353,-1.464000,-32.939999,990.395996,88,42,40,6160.000000,2940.000000,2800.000000,81,29.943848
Thu 1970-01-01 01:00:00 CET,187.043,-1341,-211,1883,-187.740005,-29.540001,263.619995,-3,-47,1350,-2.196000,-34.403999,988.200012,83,42,44,5810.000000,2940.000000,3080.000000,82,30.004883
Thu 1970-01-01 01:00:00 CET,188.043,-1351,-180,1846,-189.139999,-25.200001,258.440002,-2,-42,1366,-1.464000,-30.743999,999.911987,88,41,40,6160.000000,2870.000000,2800.000000,77,29.699707
Thu 1970-01-01 01:00:00 CET,189.042,-1338,-182,1865,-187.320007,-25.480000,261.100006,-3,-44,1351,-2.196000,-32.208000,988.932007,88,39,41,6160.000000,2730.000000,2870.000000,80,29.882812
Thu 1970-01-01 01:00:00 CET,190.042,-1327,-197,1864,-185.779999,-27.580000,260.959991,-7,-47,1353,-5.124000,-34.403999,990.395996,90,42,43,6300.000000,2940.000000,3010.000000,81,29.943848
Thu 1970-01-01 01:00:00 CET,191.041,-1319,-186,1914,-184.660004,-26.040001,267.959991,-4,-48,1350,-2.928000,-35.136002,988.200012,88,42,43,6160.000000,2940.000000,3010.000000,79,29.821777
Thu 1970-01-01 01:00:00 CET,192.041,-1305,-193,1832,-182.699997,-27.020000,256.480011,-4,-44,1347,-2.928000,-32.208000,986.003967,91,40,41,6370.000000,2800.000000,2870.000000,80,29.882812
Thu 1970-01-01 01:00:00 CET,193.041,-1346,-152,1824,-188.440002,-21.280001,255.360001,-8,-51,1348,-5.856000,-37.332001,986.735962,85,39,42,5950.000000,2730.000000,2940.000000,79,29.821777
Thu 1970-01-01 01:00:00 CET,194.041,-1363,-126,1863,-190.820007,-17.639999,260.820007,-2,-44,1348,-1.464000,-32.208000,986.735962,92,47,43,6440.000000,3290.000000,3010.000000,82,30.004883
Thu 1970-01-01 01:00:00 CET,195.041,-1332,-176,1768,-186.479996,-24.639999,247.520004,-2,-44,1350,-1.464000,-32.208000,988.200012,91,39,43,6370.000000,2730.000000,3010.000000,80,29.882812
Thu 1970-01-01 01:00:00 CET,196.041,-1317,-159,1739,-184.380005,-22.260000,243.460007,-3,-45,1354,-2.196000,-32.939999,991.127991,79,45,45,5530.000000,3150.000000,3150.000000,80,29.882812
Thu 1970-01-01 01:00:00 CET,197.041,-1342,-176,1863,-187.880005,-24.639999,260.820007,-4,-41,1349,-2.928000,-30.011999,987.468018,85,43,39,5950.000000,3010.000000,2730.000000,81,29.943848
Thu 1970-01-01 01:00:00 CET,198.041,-1336,-111,1857,-187.039993,-15.540000,259.980011,-3,-46,1355,-2.196000,-33.672001,991.859985,85,45,41,5950.000000,3150.000000,2870.000000,82,30.004883
Thu 1970-01-01 01:00:00 CET,199.042,-1322,-202,1964,-185.080002,-28.280001,274.959991,-3,-44,1351,-2.196000,-32.208000,988.932007,96,41,43,6720.000000,2870.000000,3010.000000,82,30.004883
Thu 1970-01-01 01:00:00 CET,200.041,-1336,-204,1864,-187.039993,-28.559999,260.959991,0,-46,1353,0.000000,-33.672001,990.395996,84,43,43,5880.000000,3010.000000,3010.000000,79,29.821777
