HTL state,Time GPS,Mission time,MGT-X raw,MGT-Y raw,MGT-Z raw,MGT-X mgauss,MGT-Y mgauss,MGT-Z mgauss,ACC-X raw,ACC-Y raw,ACC-Z raw,ACC-X mg,ACC-Y mg,ACC-Z mg,GYRO-X raw,GYRO-Y raw,GYRO-Z raw,GYRO-X mdps,GYRO-Y mdps,GYRO-Z mdps,Temp raw,Temp Celsius
A1,Thu 1970-01-01 01:00:00 CET,0,0,0,0,0.000000,0.000000,0.000000,0,0,0,0.000000,0.000000,0.000000,0,0,0,0.000000,0.000000,0.000000,0,0.000000
A1,Thu 1970-01-01 01:00:00 CET,0.0449418,-2462,1301,-500,-344.679993,182.139999,-70.000000,-12,-43,1354,-8.784000,-31.476000,991.127991,79,-45,39,5530.000000,-3150.000000,2730.000000,31,26.892090
A1,Thu 1970-01-01 01:00:00 CET,1.04095,-2452,1340,-429,-343.279999,187.600006,-60.060001,-12,-44,1356,-8.784000,-32.208000,992.591980,77,-45,38,5390.000000,-3150.000000,2660.000000,30,26.831055
A1,Thu 1970-01-01 01:00:00 CET,2.04341,-2460,1325,-485,-344.399994,185.500000,-67.900002,-6,-45,1354,-4.392000,-32.939999,991.127991,76,-46,40,5320.000000,-3220.000000,2800.000000,32,26.953125
A1,Thu 1970-01-01 01:00:00 CET,3.04344,-2450,1335,-441,-343.000000,186.899994,-61.740002,-12,-43,1357,-8.784000,-31.476000,993.323975,81,-45,39,5670.000000,-3150.000000,2730.000000,29,26.770020
A1,Thu 1970-01-01 01:00:00 CET,4.04433,-2461,1320,-519,-344.540009,184.800003,-72.660004,-4,-45,1357,-2.928000,-32.939999,993.323975,78,-45,42,5460.000000,-3150.000000,2940.000000,33,27.014160
A1,Thu 1970-01-01 01:00:00 CET,5.04349,-2448,1338,-494,-342.720001,187.320007,-69.160004,-10,-43,1356,-7.320000,-31.476000,992.591980,74,-42,43,5180.000000,-2940.000000,3010.000000,29,26.770020
A1,Thu 1970-01-01 01:00:00 CET,6.0438,-2463,1342,-504,-344.820007,187.880005,-70.559998,-9,-47,1355,-6.588000,-34.403999,991.859985,73,-42,40,5110.000000,-2940.000000,2800.000000,31,26.892090
A1,Thu 1970-01-01 01:00:00 CET,7.04375,-2422,1356,-446,-339.079987,189.839996,-62.439999,-6,-42,1354,-4.392000,-30.743999,991.127991,74,-44,45,5180.000000,-3080.000000,3150.000000,29,26.770020
A1,Thu 1970-01-01 01:00:00 CET,8.0428,-2467,1319,-505,-345.380005,184.660004,-70.699997,-6,-41,1360,-4.392000,-30.011999,995.520020,72,-44,41,5040.000000,-3080.000000,2870.000000,32,26.953125
A1,Thu 1970-01-01 01:00:00 CET,9.04394,-2435,1309,-507,-340.899994,183.259995,-70.980003,-9,-43,1356,-6.588000,-31.476000,992.591980,76,-39,42,5320.000000,-2730.000000,2940.000000,34,27.075195
A1,Thu 1970-01-01 01:00:00 CET,10.0441,-2449,1342,-434,-342.860016,187.880005,-60.760002,-11,-40,1356,-8.052000,-29.279999,992.591980,74,-44,41,5180.000000,-3080.000000,2870.000000,33,27.014160
A1,Thu 1970-01-01 01:00:00 CET,11.0434,-2435,1337,-494,-340.899994,187.180008,-69.160004,-11,-43,1354,-8.052000,-31.476000,991.127991,73,-43,43,5110.000000,-3010.000000,3010.000000,31,26.892090
A1,Thu 1970-01-01 01:00:00 CET,12.043,-2452,1326,-399,-343.279999,185.639999,-55.860001,-6,-43,1362,-4.392000,-31.476000,996.984009,77,-45,43,5390.000000,-3150.000000,3010.000000,31,26.892090
A1,Thu 1970-01-01 01:00:00 CET,13.0412,-2451,1337,-508,-343.140015,187.180008,-71.120003,-11,-44,1352,-8.052000,-32.208000,989.664001,83,-43,43,5810.000000,-3010.000000,3010.000000,30,26.831055
A1,Thu 1970-01-01 01:00:00 CET,14.0413,-2408,1346,-523,-337.119995,188.440002,-73.220001,-10,-46,1356,-7.320000,-33.672001,992.591980,78,-43,45,5460.000000,-3010.000000,3150.000000,36,27.197266
A1,Thu 1970-01-01 01:00:00 CET,15.0421,-2398,1322,-409,-335.720001,185.080002,-57.260002,-7,-42,1358,-5.124000,-30.743999,994.055969,77,-44,40,5390.000000,-3080.000000,2800.000000,31,26.892090
A1,Thu 1970-01-01 01:00:00 CET,16.0435,-2413,1331,-380,-337.820007,186.339996,-53.200001,-10,-47,1356,-7.320000,-34.403999,992.591980,77,-41,42,5390.000000,-2870.000000,2940.000000,31,26.892090
A1,Thu 1970-01-01 01:00:00 CET,17.0438,-2427,1335,-409,-339.779999,186.899994,-57.260002,-11,-43,1357,-8.052000,-31.476000,993.323975,74,-42,43,5180.000000,-2940.000000,3010.000000,33,27.014160
A1,Thu 1970-01-01 01:00:00 CET,18.044,-2481,1302,-527,-347.339996,182.279999,-73.779999,-12,-41,1356,-8.784000,-30.011999,992.591980,77,-45,43,5390.000000,-3150.000000,3010.000000,34,27.075195
A1,Thu 1970-01-01 01:00:00 CET,19.0453,-2471,1365,-519,-345.940002,191.100006,-72.660004,-9,-47,1358,-6.588000,-34.403999,994.055969,81,-45,41,5670.000000,-3150.000000,2870.000000,30,26.831055
A1,Thu 1970-01-01 01:00:00 CET,20.0436,-2420,1326,-478,-338.799988,185.639999,-66.919998,-9,-44,1355,-6.588000,-32.208000,991.859985,79,-45,42,5530.000000,-3150.000000,2940.000000,32,26.953125
A1,Thu 1970-01-01 01:00:00 CET,21.0432,-2446,1331,-505,-342.440002,186.339996,-70.699997,-5,-43,1358,-3.660000,-31.476000,994.055969,75,-44,42,5250.000000,-3080.000000,2940.000000,31,26.892090
A1,Thu 1970-01-01 01:00:00 CET,22.0436,-2455,1282,-465,-343.700012,179.479996,-65.099998,-11,-45,1355,-8.052000,-32.939999,991.859985,72,-49,37,5040.000000,-3430.000000,2590.000000,32,26.953125
A1,Thu 1970-01-01 01:00:00 CET,23.0435,-2491,1352,-433,-348.739990,189.279999,-60.619999,-9,-46,1355,-6.588000,-33.672001,991.859985,70,-47,41,4900.000000,-3290.000000,2870.000000,33,27.014160
A1,Thu 1970-01-01 01:00:00 CET,24.0435,-2453,1333,-454,-343.420013,186.619995,-63.560001,-7,-45,1356,-5.124000,-32.939999,992.591980,71,-41,44,4970.000000,-2870.000000,3080.000000,32,26.953125
A1,Thu 1970-01-01 01:00:00 CET,25.0427,-2408,1329,-476,-337.119995,186.059998,-66.639999,-11,-45,1355,-8.052000,-32.939999,991.859985,77,-44,41,5390.000000,-3080.000000,2870.000000,32,26.953125
A1,Thu 1970-01-01 01:00:00 CET,26.0431,-2462,1305,-456,-344.679993,182.699997,-63.840000,-10,-46,1355,-7.320000,-33.672001,991.859985,80,-47,44,5600.000000,-3290.000000,3080.000000,33,27.014160
A1,Thu 1970-01-01 01:00:00 CET,27.0424,-2406,1334,-463,-336.839996,186.759995,-64.820000,-10,-40,1355,-7.320000,-29.279999,991.859985,83,-48,43,5810.000000,-3360.000000,3010.000000,34,27.075195
A1,Thu 1970-01-01 01:00:00 CET,28.0444,-2455,1356,-357,-343.700012,189.839996,-49.980000,-7,-41,1357,-5.124000,-30.011999,993.323975,79,-41,41,5530.000000,-2870.000000,2870.000000,35,27.136230
A1,Thu 1970-01-01 01:00:00 CET,29.0435,-2485,1352,-365,-347.899994,189.279999,-51.099998,-12,-43,1355,-8.784000,-31.476000,991.859985,76,-44,41,5320.000000,-3080.000000,2870.000000,34,27.075195
A1,Thu 1970-01-01 01:00:00 CET,30.0435,-2493,1367,-392,-349.019989,191.380005,-54.880001,-7,-44,1357,-5.124000,-32.208000,993.323975,78,-42,38,5460.000000,-2940.000000,2660.000000,31,26.892090
A1,Thu 1970-01-01 01:00:00 CET,31.0439,-2463,1369,-415,-344.820007,191.660004,-58.099998,-5,-44,1356,-3.660000,-32.208000,992.591980,76,-42,43,5320.000000,-2940.000000,3010.000000,31,26.892090
A1,Thu 1970-01-01 01:00:00 CET,32.0432,-2484,1352,-330,-347.760010,189.279999,-46.200001,-8,-44,1355,-5.856000,-32.208000,991.859985,74,-43,41,5180.000000,-3010.000000,2870.000000,32,26.953125
A1,Thu 1970-01-01 01:00:00 CET,33.0438,-2472,1357,-461,-346.079987,189.979996,-64.540001,-9,-48,1355,-6.588000,-35.136002,991.859985,85,-45,42,5950.000000,-3150.000000,2940.000000,36,27.197266
A1,Thu 1970-01-01 01:00:00 CET,34.0437,-2394,1363,-411,-335.160004,190.820007,-57.540001,-8,-43,1357,-5.856000,-31.476000,993.323975,84,-44,42,5880.000000,-3080.000000,2940.000000,34,27.075195
A1,Thu 1970-01-01 01:00:00 CET,35.0434,-2440,1343,-519,-341.600006,188.020004,-72.660004,-9,-44,1355,-6.588000,-32.208000,991.859985,82,-42,40,5740.000000,-2940.000000,2800.000000,37,27.258301
A1,Thu 1970-01-01 01:00:00 CET,36.0436,-2438,1330,-468,-341.320007,186.199997,-65.519997,-8,-44,1355,-5.856000,-32.208000,991.859985,73,-44,41,5110.000000,-3080.000000,2870.000000,31,26.892090
A1,Thu 1970-01-01 01:00:00 CET,37.0449,-2409,1384,-348,-337.260010,193.759995,-48.720001,-10,-47,1353,-7.320000,-34.403999,990.395996,79,-45,40,5530.000000,-3150.000000,2800.000000,34,27.075195
A1,Thu 1970-01-01 01:00:00 CET,38.0415,-2457,1320,-435,-343.980011,184.800003,-60.900002,-10,-46,1355,-7.320000,-33.672001,991.859985,82,-43,44,5740.000000,-3010.000000,3080.000000,37,27.258301
A1,Thu 1970-01-01 01:00:00 CET,39.0428,-2405,1349,-552,-336.700012,188.860001,-77.279999,-10,-43,1358,-7.320000,-31.476000,994.055969,78,-43,42,5460.000000,-3010.000000,2940.000000,34,27.075195
A1,Thu 1970-01-01 01:00:00 CET,40.0424,-2442,1356,-521,-341.880005,189.839996,-72.940002,-10,-44,1352,-7.320000,-32.208000,989.664001,80,-44,42,5600.000000,-3080.000000,2940.000000,36,27.197266
A1,Thu 1970-01-01 01:00:00 CET,41.0432,-2428,1392,-487,-339.920013,194.880005,-68.180000,-9,-49,1354,-6.588000,-35.868000,991.127991,78,-41,44,5460.000000,-2870.000000,3080.000000,34,27.075195
A1,Thu 1970-01-01 01:00:00 CET,42.0432,-2472,1374,-481,-346.079987,192.360001,-67.340004,-4,-48,1352,-2.928000,-35.136002,989.664001,76,-46,40,5320.000000,-3220.000000,2800.000000,37,27.258301
A1,Thu 1970-01-01 01:00:00 CET,43.0429,-2439,1387,-522,-341.459991,194.180008,-73.080002,-9,-39,1357,-6.588000,-28.548000,993.323975,79,-43,44,5530.000000,-3010.000000,3080.000000,36,27.197266
A1,Thu 1970-01-01 01:00:00 CET,44.043,-2450,1371,-445,-343.000000,191.940002,-62.299999,-6,-42,1357,-4.392000,-30.743999,993.323975,75,-42,42,5250.000000,-2940.000000,2940.000000,35,27.136230
A1,Thu 1970-01-01 01:00:00 CET,45.0426,-2466,1348,-432,-345.239990,188.720001,-60.480000,-10,-41,1359,-7.320000,-30.011999,994.787964,79,-41,40,5530.000000,-2870.000000,2800.000000,33,27.014160
A1,Thu 1970-01-01 01:00:00 CET,46.0442,-2405,1325,-471,-336.700012,185.500000,-65.940002,-6,-43,1356,-4.392000,-31.476000,992.591980,81,-49,42,5670.000000,-3430.000000,2940.000000,36,27.197266
A1,Thu 1970-01-01 01:00:00 CET,47.0432,-2407,1375,-473,-336.980011,192.500000,-66.220001,-11,-40,1356,-8.052000,-29.279999,992.591980,81,-44,40,5670.000000,-3080.000000,2800.000000,35,27.136230
A1,Thu 1970-01-01 01:00:00 CET,48.0431,-2420,1328,-639,-338.799988,185.919998,-89.459999,-13,-44,1359,-9.516000,-32.208000,994.787964,82,-45,46,5740.000000,-3150.000000,3220.000000,32,26.953125
A1,Thu 1970-01-01 01:00:00 CET,49.0433,-2464,1372,-507,-344.959991,192.080002,-70.980003,-8,-44,1357,-5.856000,-32.208000,993.323975,72,-47,44,5040.000000,-3290.000000,3080.000000,36,27.197266
A1,Thu 1970-01-01 01:00:00 CET,50.0434,-2446,1343,-421,-342.440002,188.020004,-58.939999,-10,-40,1352,-7.320000,-29.279999,989.664001,80,-41,44,5600.000000,-2870.000000,3080.000000,37,27.258301
A1,Thu 1970-01-01 01:00:00 CET,51.0422,-2457,1370,-513,-343.980011,191.800003,-71.820000,-12,-45,1357,-8.784000,-32.939999,993.323975,79,-43,41,5530.000000,-3010.000000,2870.000000,33,27.014160
A1,Thu 1970-01-01 01:00:00 CET,52.0391,-2497,1337,-524,-349.579987,187.180008,-73.360001,-12,-43,1352,-8.784000,-31.476000,989.664001,76,-47,43,5320.000000,-3290.000000,3010.000000,36,27.197266
A1,Thu 1970-01-01 01:00:00 CET,53.043,-2462,1357,-538,-344.679993,189.979996,-75.320000,-14,-47,1354,-10.248000,-34.403999,991.127991,80,-46,39,5600.000000,-3220.000000,2730.000000,36,27.197266
A1,Thu 1970-01-01 01:00:00 CET,54.0432,-2458,1349,-551,-344.119995,188.860001,-77.139999,-8,-44,1354,-5.856000,-32.208000,991.127991,84,-44,43,5880.000000,-3080.000000,3010.000000,37,27.258301
A1,Thu 1970-01-01 01:00:00 CET,55.0444,-2447,1355,-533,-342.579987,189.699997,-74.620003,-10,-44,1356,-7.320000,-32.208000,992.591980,81,-43,44,5670.000000,-3010.000000,3080.000000,33,27.014160
A1,Thu 1970-01-01 01:00:00 CET,56.0438,-2496,1385,-572,-349.440002,193.899994,-80.080002,-9,-44,1355,-6.588000,-32.208000,991.859985,78,-42,43,5460.000000,-2940.000000,3010.000000,38,27.319336
A1,Thu 1970-01-01 01:00:00 CET,57.0438,-2497,1351,-567,-349.579987,189.139999,-79.379997,-8,-42,1355,-5.856000,-30.743999,991.859985,82,-44,44,5740.000000,-3080.000000,3080.000000,36,27.197266
A1,Thu 1970-01-01 01:00:00 CET,58.0435,-2504,1345,-515,-350.559998,188.300003,-72.099998,-11,-49,1355,-8.052000,-35.868000,991.859985,77,-44,43,5390.000000,-3080.000000,3010.000000,37,27.258301
A1,Thu 1970-01-01 01:00:00 CET,59.0443,-2460,1356,-447,-344.399994,189.839996,-62.580002,-9,-40,1353,-6.588000,-29.279999,990.395996,80,-43,41,5600.000000,-3010.000000,2870.000000,36,27.197266
A1,Thu 1970-01-01 01:00:00 CET,60.044,-2496,1426,-453,-349.440002,199.639999,-63.420002,-7,-43,1351,-5.124000,-31.476000,988.932007,80,-46,42,5600.000000,-3220.000000,2940.000000,34,27.075195
A1,Thu 1970-01-01 01:00:00 CET,61.0441,-2434,1334,-617,-340.760010,186.759995,-86.379997,-11,-43,1357,-8.052000,-31.476000,993.323975,78,-47,42,5460.000000,-3290.000000,2940.000000,37,27.258301
A1,Thu 1970-01-01 01:00:00 CET,62.0437,-2511,1403,-549,-351.540009,196.419998,-76.860001,-6,-45,1354,-4.392000,-32.939999,991.127991,74,-47,46,5180.000000,-3290.000000,3220.000000,37,27.258301
A1,Thu 1970-01-01 01:00:00 CET,63.0429,-2462,1327,-499,-344.679993,185.779999,-69.860001,-12,-43,1356,-8.784000,-31.476000,992.591980,73,-45,43,5110.000000,-3150.000000,3010.000000,37,27.258301
A1,Thu 1970-01-01 01:00:00 CET,64.0428,-2473,1358,-437,-346.220001,190.119995,-61.180000,-9,-43,1353,-6.588000,-31.476000,990.395996,79,-43,42,5530.000000,-3010.000000,2940.000000,37,27.258301
A1,Thu 1970-01-01 01:00:00 CET,65.0411,-2441,1361,-549,-341.739990,190.539993,-76.860001,-10,-43,1351,-7.320000,-31.476000,988.932007,80,-45,40,5600.000000,-3150.000000,2800.000000,38,27.319336
A1,Thu 1970-01-01 01:00:00 CET,66.0434,-2463,1390,-521,-344.820007,194.600006,-72.940002,-8,-45,1356,-5.856000,-32.939999,992.591980,79,-46,45,5530.000000,-3220.000000,3150.000000,37,27.258301
A1,Thu 1970-01-01 01:00:00 CET,67.0431,-2527,1392,-450,-353.779999,194.880005,-63.000000,-10,-44,1355,-7.320000,-32.208000,991.859985,82,-44,43,5740.000000,-3080.000000,3010.000000,39,27.380371
A1,Thu 1970-01-01 01:00:00 CET,68.0433,-2462,1333,-484,-344.679993,186.619995,-67.760002,-9,-41,1353,-6.588000,-30.011999,990.395996,82,-47,43,5740.000000,-3290.000000,3010.000000,38,27.319336
A1,Thu 1970-01-01 01:00:00 CET,69.0432,-2442,1339,-527,-341.880005,187.460007,-73.779999,-9,-43,1354,-6.588000,-31.476000,991.127991,84,-45,38,5880.000000,-3150.000000,2660.000000,38,27.319336
A1,Thu 1970-01-01 01:00:00 CET,70.0434,-2464,1356,-532,-344.959991,189.839996,-74.480003,-14,-41,1359,-10.248000,-30.011999,994.787964,86,-47,44,6020.000000,-3290.000000,3080.000000,38,27.319336
A1,Thu 1970-01-01 01:00:00 CET,71.0431,-2482,1369,-576,-347.480011,191.660004,-80.639999,-13,-46,1356,-9.516000,-33.672001,992.591980,78,-45,44,5460.000000,-3150.000000,3080.000000,37,27.258301
A1,Thu 1970-01-01 01:00:00 CET,72.0431,-2472,1415,-590,-346.079987,198.100006,-82.599998,-9,-45,1355,-6.588000,-32.939999,991.859985,73,-46,41,5110.000000,-3220.000000,2870.000000,34,27.075195
A1,Thu 1970-01-01 01:00:00 CET,73.0445,-2501,1372,-529,-350.140015,192.080002,-74.059998,-11,-40,1354,-8.052000,-29.279999,991.127991,78,-41,42,5460.000000,-2870.000000,2940.000000,38,27.319336
A1,Thu 1970-01-01 01:00:00 CET,74.0431,-2458,1275,-510,-344.119995,178.500000,-71.400002,-9,-44,1355,-6.588000,-32.208000,991.859985,75,-44,45,5250.000000,-3080.000000,3150.000000,38,27.319336
A1,Thu 1970-01-01 01:00:00 CET,75.044,-2410,1319,-490,-337.399994,184.660004,-68.599998,-8,-40,1353,-5.856000,-29.279999,990.395996,76,-44,46,5320.000000,-3080.000000,3220.000000,41,27.502441
A1,Thu 1970-01-01 01:00:00 CET,76.041,-2474,1359,-504,-346.360016,190.259995,-70.559998,-10,-40,1352,-7.320000,-29.279999,989.664001,80,-44,41,5600.000000,-3080.000000,2870.000000,39,27.380371
A1,Thu 1970-01-01 01:00:00 CET,77.0424,-2473,1347,-528,-346.220001,188.580002,-73.919998,-12,-43,1359,-8.784000,-31.476000,994.787964,78,-43,41,5460.000000,-3010.000000,2870.000000,37,27.258301
A1,Thu 1970-01-01 01:00:00 CET,78.0423,-2433,1379,-573,-340.619995,193.059998,-80.220001,-12,-45,1355,-8.784000,-32.939999,991.859985,80,-42,39,5600.000000,-2940.000000,2730.000000,38,27.319336
A1,Thu 1970-01-01 01:00:00 CET,79.0433,-2462,1422,-610,-344.679993,199.080002,-85.400002,-8,-44,1355,-5.856000,-32.208000,991.859985,74,-48,41,5180.000000,-3360.000000,2870.000000,37,27.258301
A1,Thu 1970-01-01 01:00:00 CET,80.0432,-2511,1426,-558,-351.540009,199.639999,-78.120003,-6,-47,1351,-4.392000,-34.403999,988.932007,86,-47,45,6020.000000,-3290.000000,3150.000000,40,27.441406
A1,Thu 1970-01-01 01:00:00 CET,81.0432,-2444,1357,-556,-342.160004,189.979996,-77.840004,-11,-42,1358,-8.052000,-30.743999,994.055969,79,-44,43,5530.000000,-3080.000000,3010.000000,39,27.380371
A1,Thu 1970-01-01 01:00:00 CET,82.0444,-2491,1401,-508,-348.739990,196.139999,-71.120003,-9,-41,1356,-6.588000,-30.011999,992.591980,80,-46,43,5600.000000,-3220.000000,3010.000000,39,27.380371
A1,Thu 1970-01-01 01:00:00 CET,83.0432,-2461,1380,-523,-344.540009,193.199997,-73.220001,-10,-42,1355,-7.320000,-30.743999,991.859985,85,-47,40,5950.000000,-3290.000000,2800.000000,40,27.441406
A1,Thu 1970-01-01 01:00:00 CET,84.0432,-2464,1398,-494,-344.959991,195.720001,-69.160004,-6,-44,1353,-4.392000,-32.208000,990.395996,81,-46,40,5670.000000,-3220.000000,2800.000000,40,27.441406
A1,Thu 1970-01-01 01:00:00 CET,85.0431,-2449,1416,-546,-342.860016,198.240005,-76.440002,-10,-39,1353,-7.320000,-28.548000,990.395996,80,-46,43,5600.000000,-3220.000000,3010.000000,38,27.319336
A1,Thu 1970-01-01 01:00:00 CET,86.0421,-2415,1409,-560,-338.100006,197.259995,-78.400002,-10,-41,1352,-7.320000,-30.011999,989.664001,80,-45,39,5600.000000,-3150.000000,2730.000000,37,27.258301
A1,Thu 1970-01-01 01:00:00 CET,87.0424,-2449,1367,-529,-342.860016,191.380005,-74.059998,-10,-47,1356,-7.320000,-34.403999,992.591980,80,-46,41,5600.000000,-3220.000000,2870.000000,40,27.441406
A1,Thu 1970-01-01 01:00:00 CET,88.044,-2473,1360,-481,-346.220001,190.399994,-67.340004,-9,-42,1357,-6.588000,-30.743999,993.323975,81,-46,40,5670.000000,-3220.000000,2800.000000,40,27.441406
A1,Thu 1970-01-01 01:00:00 CET,89.0425,-2406,1349,-524,-336.839996,188.860001,-73.360001,-7,-43,1353,-5.124000,-31.476000,990.395996,79,-46,44,5530.000000,-3220.000000,3080.000000,39,27.380371
A1,Thu 1970-01-01 01:00:00 CET,90.0425,-2456,1361,-551,-343.839996,190.539993,-77.139999,-11,-49,1354,-8.052000,-35.868000,991.127991,81,-46,41,5670.000000,-3220.000000,2870.000000,37,27.258301
A1,Thu 1970-01-01 01:00:00 CET,91.044,-2434,1354,-621,-340.760010,189.559998,-86.940002,-11,-42,1354,-8.052000,-30.743999,991.127991,75,-43,44,5250.000000,-3010.000000,3080.000000,38,27.319336
A1,Thu 1970-01-01 01:00:00 CET,92.0435,-2403,1335,-473,-336.420013,186.899994,-66.220001,-6,-41,1355,-4.392000,-30.011999,991.859985,80,-48,39,5600.000000,-3360.000000,2730.000000,39,27.380371
A1,Thu 1970-01-01 01:00:00 CET,93.0433,-2418,1379,-494,-338.519989,193.059998,-69.160004,-12,-41,1354,-8.784000,-30.011999,991.127991,77,-45,44,5390.000000,-3150.000000,3080.000000,42,27.563477
A1,Thu 1970-01-01 01:00:00 CET,94.0429,-2448,1362,-479,-342.720001,190.680008,-67.059998,-11,-43,1355,-8.052000,-31.476000,991.859985,85,-47,43,5950.000000,-3290.000000,3010.000000,42,27.563477
A1,Thu 1970-01-01 01:00:00 CET,95.0422,-2401,1348,-481,-336.140015,188.720001,-67.340004,-13,-40,1355,-9.516000,-29.279999,991.859985,77,-42,43,5390.000000,-2940.000000,3010.000000,41,27.502441
A1,Thu 1970-01-01 01:00:00 CET,96.0422,-2446,1346,-509,-342.440002,188.440002,-71.260002,-9,-44,1358,-6.588000,-32.208000,994.055969,84,-45,42,5880.000000,-3150.000000,2940.000000,39,27.380371
A1,Thu 1970-01-01 01:00:00 CET,97.0423,-2417,1385,-549,-338.380005,193.899994,-76.860001,-10,-46,1356,-7.320000,-33.672001,992.591980,74,-45,43,5180.000000,-3150.000000,3010.000000,42,27.563477
A1,Thu 1970-01-01 01:00:00 CET,98.0417,-2429,1416,-550,-340.059998,198.240005,-77.000000,-6,-47,1354,-4.392000,-34.403999,991.127991,77,-43,43,5390.000000,-3010.000000,3010.000000,41,27.502441
A1,Thu 1970-01-01 01:00:00 CET,99.0423,-2362,1417,-580,-330.679993,198.380005,-81.199997,-10,-47,1357,-7.320000,-34.403999,993.323975,74,-46,42,5180.000000,-3220.000000,2940.000000,40,27.441406
A1,Thu 1970-01-01 01:00:00 CET,100.043,-2446,1388,-571,-342.440002,194.320007,-79.940002,-10,-42,1353,-7.320000,-30.743999,990.395996,81,-44,45,5670.000000,-3080.000000,3150.000000,41,27.502441
A1,Thu 1970-01-01 01:00:00 CET,101.042,-2374,1378,-529,-332.360016,192.919998,-74.059998,-12,-42,1355,-8.784000,-30.743999,991.859985,75,-45,43,5250.000000,-3150.000000,3010.000000,40,27.441406
A1,Thu 1970-01-01 01:00:00 CET,102.042,-2447,1368,-454,-342.579987,191.520004,-63.560001,-7,-45,1355,-5.124000,-32.939999,991.859985,76,-45,43,5320.000000,-3150.000000,3010.000000,37,27.258301
A1,Thu 1970-01-01 01:00:00 CET,103.042,-2447,1407,-518,-342.579987,196.979996,-72.519997,-11,-46,1354,-8.052000,-33.672001,991.127991,81,-45,44,5670.000000,-3150.000000,3080.000000,42,27.563477
A1,Thu 1970-01-01 01:00:00 CET,104.038,-2436,1408,-476,-341.040009,197.119995,-66.639999,-8,-46,1355,-5.856000,-33.672001,991.859985,80,-42,43,5600.000000,-2940.000000,3010.000000,41,27.502441
A1,Thu 1970-01-01 01:00:00 CET,105.043,-2484,1355,-426,-347.760010,189.699997,-59.639999,-13,-43,1355,-9.516000,-31.476000,991.859985,78,-41,40,5460.000000,-2870.000000,2800.000000,40,27.441406
A1,Thu 1970-01-01 01:00:00 CET,106.043,-2423,1363,-420,-339.220001,190.820007,-58.799999,-12,-47,1353,-8.784000,-34.403999,990.395996,85,-48,44,5950.000000,-3360.000000,3080.000000,39,27.380371
A1,Thu 1970-01-01 01:00:00 CET,107.042,-2409,1357,-430,-337.260010,189.979996,-60.200001,-10,-43,1357,-7.320000,-31.476000,993.323975,83,-50,43,5810.000000,-3500.000000,3010.000000,41,27.502441
A1,Thu 1970-01-01 01:00:00 CET,108.042,-2447,1362,-440,-342.579987,190.680008,-61.599998,-14,-44,1356,-10.248000,-32.208000,992.591980,75,-46,45,5250.000000,-3220.000000,3150.000000,43,27.624512
A1,Thu 1970-01-01 01:00:00 CET,109.044,-2439,1353,-442,-341.459991,189.419998,-61.880001,-5,-41,1355,-3.660000,-30.011999,991.859985,81,-42,42,5670.000000,-2940.000000,2940.000000,40,27.441406
A1,Thu 1970-01-01 01:00:00 CET,110.043,-2437,1367,-482,-341.179993,191.380005,-67.480003,-13,-37,1355,-9.516000,-27.084000,991.859985,82,-41,39,5740.000000,-2870.000000,2730.000000,43,27.624512
A1,Thu 1970-01-01 01:00:00 CET,111.044,-2466,1344,-415,-345.239990,188.160004,-58.099998,-11,-44,1355,-8.052000,-32.208000,991.859985,76,-45,38,5320.000000,-3150.000000,2660.000000,41,27.502441
A1,Thu 1970-01-01 01:00:00 CET,112.044,-2442,1336,-479,-341.880005,187.039993,-67.059998,-11,-39,1354,-8.052000,-28.548000,991.127991,81,-49,42,5670.000000,-3430.000000,2940.000000,44,27.685547
A1,Thu 1970-01-01 01:00:00 CET,113.044,-2443,1353,-498,-342.019989,189.419998,-69.720001,-12,-42,1356,-8.784000,-30.743999,992.591980,81,-46,41,5670.000000,-3220.000000,2870.000000,42,27.563477
A1,Thu 1970-01-01 01:00:00 CET,114.044,-2418,1371,-375,-338.519989,191.940002,-52.500000,0,-48,1354,0.000000,-35.136002,991.127991,78,-46,43,5460.000000,-3220.000000,3010.000000,40,27.441406
A1,Thu 1970-01-01 01:00:00 CET,115.044,-2418,1374,-392,-338.519989,192.360001,-54.880001,-11,-42,1351,-8.052000,-30.743999,988.932007,81,-46,44,5670.000000,-3220.000000,3080.000000,43,27.624512
A1,Thu 1970-01-01 01:00:00 CET,116.043,-2429,1349,-461,-340.059998,188.860001,-64.540001,-10,-36,1360,-7.320000,-26.351999,995.520020,85,-46,44,5950.000000,-3220.000000,3080.000000,44,27.685547
A1,Thu 1970-01-01 01:00:00 CET,117.044,-2386,1375,-418,-334.040009,192.500000,-58.520000,-11,-45,1355,-8.052000,-32.939999,991.859985,82,-51,42,5740.000000,-3570.000000,2940.000000,44,27.685547
A1,Thu 1970-01-01 01:00:00 CET,118.045,-2463,1375,-474,-344.820007,192.500000,-66.360001,-16,-44,1358,-11.712000,-32.208000,994.055969,79,-46,42,5530.000000,-3220.000000,2940.000000,43,27.624512
A1,Thu 1970-01-01 01:00:00 CET,119.044,-2441,1357,-422,-341.739990,189.979996,-59.080002,-2,-49,1355,-1.464000,-35.868000,991.859985,75,-46,40,5250.000000,-3220.000000,2800.000000,44,27.685547
A1,Thu 1970-01-01 01:00:00 CET,120.044,-2460,1360,-345,-344.399994,190.399994,-48.299999,-13,-39,1357,-9.516000,-28.548000,993.323975,81,-44,41,5670.000000,-3080.000000,2870.000000,43,27.624512
A1,Thu 1970-01-01 01:00:00 CET,121.044,-2462,1380,-326,-344.679993,193.199997,-45.639999,-9,-49,1354,-6.588000,-35.868000,991.127991,81,-44,39,5670.000000,-3080.000000,2730.000000,43,27.624512
A1,Thu 1970-01-01 01:00:00 CET,122.044,-2431,1371,-351,-340.339996,191.940002,-49.139999,-10,-41,1355,-7.320000,-30.011999,991.859985,78,-41,39,5460.000000,-2870.000000,2730.000000,47,27.868652
A1,Thu 1970-01-01 01:00:00 CET,123.044,-2478,1370,-434,-346.920013,191.800003,-60.760002,-8,-41,1355,-5.856000,-30.011999,991.859985,80,-44,44,5600.000000,-3080.000000,3080.000000,46,27.807617
A1,Thu 1970-01-01 01:00:00 CET,124.044,-2491,1378,-465,-348.739990,192.919998,-65.099998,-15,-45,1351,-10.980000,-32.939999,988.932007,85,-43,43,5950.000000,-3010.000000,3010.000000,45,27.746582
A1,Thu 1970-01-01 01:00:00 CET,125.043,-2469,1393,-464,-345.660004,195.020004,-64.959999,-14,-45,1352,-10.248000,-32.939999,989.664001,82,-45,40,5740.000000,-3150.000000,2800.000000,44,27.685547
A1,Thu 1970-01-01 01:00:00 CET,126.043,-2485,1348,-410,-347.899994,188.720001,-57.400002,-6,-48,1357,-4.392000,-35.136002,993.323975,84,-47,44,5880.000000,-3290.000000,3080.000000,47,27.868652
A1,Thu 1970-01-01 01:00:00 CET,127.045,-2458,1364,-427,-344.119995,190.960007,-59.779999,-9,-41,1351,-6.588000,-30.011999,988.932007,90,-46,42,6300.000000,-3220.000000,2940.000000,44,27.685547
A1,Thu 1970-01-01 01:00:00 CET,128.043,-2445,1393,-341,-342.299988,195.020004,-47.740002,-11,-45,1352,-8.052000,-32.939999,989.664001,79,-46,43,5530.000000,-3220.000000,3010.000000,46,27.807617
A1,Thu 1970-01-01 01:00:00 CET,129.043,-2433,1397,-396,-340.619995,195.580002,-55.439999,-7,-45,1352,-5.124000,-32.939999,989.664001,78,-42,43,5460.000000,-2940.000000,3010.000000,42,27.563477
A1,Thu 1970-01-01 01:00:00 CET,130.038,-2474,1344,-447,-346.360016,188.160004,-62.580002,-11,-46,1353,-8.052000,-33.672001,990.395996,86,-44,42,6020.000000,-3080.000000,2940.000000,47,27.868652
A1,Thu 1970-01-01 01:00:00 CET,131.042,-2440,1385,-451,-341.600006,193.899994,-63.139999,-6,-46,1353,-4.392000,-33.672001,990.395996,77,-47,42,5390.000000,-3290.000000,2940.000000,45,27.746582
A1,Thu 1970-01-01 01:00:00 CET,132.042,-2461,1400,-435,-344.540009,196.000000,-60.900002,-8,-46,1355,-5.856000,-33.672001,991.859985,86,-50,43,6020.000000,-3500.000000,3010.000000,47,27.868652
A1,Thu 1970-01-01 01:00:00 CET,133.042,-2472,1361,-412,-346.079987,190.539993,-57.680000,-12,-49,1354,-8.784000,-35.868000,991.127991,81,-45,41,5670.000000,-3150.000000,2870.000000,45,27.746582
A1,Thu 1970-01-01 01:00:00 CET,134.043,-2471,1405,-409,-345.940002,196.699997,-57.260002,-4,-50,1355,-2.928000,-36.599998,991.859985,83,-46,45,5810.000000,-3220.000000,3150.000000,44,27.685547
A1,Thu 1970-01-01 01:00:00 CET,135.044,-2432,1404,-385,-340.480011,196.559998,-53.900002,-3,-43,1357,-2.196000,-31.476000,993.323975,83,-42,44,5810.000000,-2940.000000,3080.000000,47,27.868652
A1,Thu 1970-01-01 01:00:00 CET,136.045,-2426,1384,-396,-339.640015,193.759995,-55.439999,-10,-49,1350,-7.320000,-35.868000,988.200012,84,-46,44,5880.000000,-3220.000000,3080.000000,47,27.868652
A1,Thu 1970-01-01 01:00:00 CET,137.044,-2455,1393,-430,-343.700012,195.020004,-60.200001,-8,-43,1353,-5.856000,-31.476000,990.395996,80,-49,40,5600.000000,-3430.000000,2800.000000,46,27.807617
A1,Thu 1970-01-01 01:00:00 CET,138.044,-2446,1326,-526,-342.440002,185.639999,-73.639999,-8,-41,1352,-5.856000,-30.011999,989.664001,86,-44,42,6020.000000,-3080.000000,2940.000000,47,27.868652
A1,Thu 1970-01-01 01:00:00 CET,139.044,-2459,1348,-598,-344.260010,188.720001,-83.720001,-7,-43,1354,-5.124000,-31.476000,991.127991,78,-45,42,5460.000000,-3150.000000,2940.000000,46,27.807617
A1,Thu 1970-01-01 01:00:00 CET,140.044,-2485,1387,-529,-347.899994,194.180008,-74.059998,-8,-43,1355,-5.856000,-31.476000,991.859985,81,-40,43,5670.000000,-2800.000000,3010.000000,49,27.990723
A1,Thu 1970-01-01 01:00:00 CET,141.043,-2491,1395,-506,-348.739990,195.300003,-70.840004,-10,-45,1354,-7.320000,-32.939999,991.127991,82,-46,41,5740.000000,-3220.000000,2870.000000,48,27.929688
A1,Thu 1970-01-01 01:00:00 CET,142.043,-2513,1393,-512,-351.820007,195.020004,-71.680000,-14,-48,1355,-10.248000,-35.136002,991.859985,83,-49,43,5810.000000,-3430.000000,3010.000000,46,27.807617
A1,Thu 1970-01-01 01:00:00 CET,143.042,-2473,1422,-522,-346.220001,199.080002,-73.080002,-6,-44,1355,-4.392000,-32.208000,991.859985,81,-46,40,5670.000000,-3220.000000,2800.000000,47,27.868652
A1,Thu 1970-01-01 01:00:00 CET,144.042,-2512,1373,-500,-351.679993,192.220001,-70.000000,-9,-41,1357,-6.588000,-30.011999,993.323975,85,-42,43,5950.000000,-2940.000000,3010.000000,48,27.929688
A1,Thu 1970-01-01 01:00:00 CET,145.044,-2504,1391,-551,-350.559998,194.740005,-77.139999,-10,-41,1355,-7.320000,-30.011999,991.859985,82,-45,42,5740.000000,-3150.000000,2940.000000,49,27.990723
A1,Thu 1970-01-01 01:00:00 CET,146.042,-2475,1383,-472,-346.500000,193.619995,-66.080002,-14,-45,1354,-10.248000,-32.939999,991.127991,88,-43,41,6160.000000,-3010.000000,2870.000000,48,27.929688
A1,Thu 1970-01-01 01:00:00 CET,147.042,-2432,1397,-537,-340.480011,195.580002,-75.180000,-7,-48,1353,-5.124000,-35.136002,990.395996,80,-45,41,5600.000000,-3150.000000,2870.000000,49,27.990723
A1,Thu 1970-01-01 01:00:00 CET,148.042,-2462,1391,-568,-344.679993,194.740005,-79.519997,-8,-45,1354,-5.856000,-32.939999,991.127991,81,-49,41,5670.000000,-3430.000000,2870.000000,50,28.051758
A1,Thu 1970-01-01 01:00:00 CET,149.043,-2493,1415,-495,-349.019989,198.100006,-69.300003,-10,-42,1353,-7.320000,-30.743999,990.395996,78,-45,42,5460.000000,-3150.000000,2940.000000,50,28.051758
A1,Thu 1970-01-01 01:00:00 CET,150.043,-2476,1379,-517,-346.640015,193.059998,-72.379997,-14,-43,1354,-10.248000,-31.476000,991.127991,83,-43,39,5810.000000,-3010.000000,2730.000000,49,27.990723
A1,Thu 1970-01-01 01:00:00 CET,151.043,-2511,1351,-483,-351.540009,189.139999,-67.620003,-7,-42,1351,-5.124000,-30.743999,988.932007,79,-40,47,5530.000000,-2800.000000,3290.000000,49,27.990723
A1,Thu 1970-01-01 01:00:00 CET,152.043,-2475,1326,-497,-346.500000,185.639999,-69.580002,-7,-44,1356,-5.124000,-32.208000,992.591980,87,-41,38,6090.000000,-2870.000000,2660.000000,50,28.051758
A1,Thu 1970-01-01 01:00:00 CET,153.043,-2480,1398,-423,-347.200012,195.720001,-59.220001,-11,-47,1357,-8.052000,-34.403999,993.323975,78,-43,41,5460.000000,-3010.000000,2870.000000,46,27.807617
A1,Thu 1970-01-01 01:00:00 CET,154.044,-2473,1355,-468,-346.220001,189.699997,-65.519997,-11,-43,1356,-8.052000,-31.476000,992.591980,83,-42,44,5810.000000,-2940.000000,3080.000000,49,27.990723
A1,Thu 1970-01-01 01:00:00 CET,155.042,-2470,1372,-510,-345.799988,192.080002,-71.400002,-15,-46,1351,-10.980000,-33.672001,988.932007,77,-48,42,5390.000000,-3360.000000,2940.000000,50,28.051758
A1,Thu 1970-01-01 01:00:00 CET,156.043,-2491,1412,-468,-348.739990,197.680008,-65.519997,-11,-43,1357,-8.052000,-31.476000,993.323975,84,-48,41,5880.000000,-3360.000000,2870.000000,50,28.051758
A1,Thu 1970-01-01 01:00:00 CET,157.044,-2459,1418,-449,-344.260010,198.520004,-62.860001,-8,-46,1356,-5.856000,-33.672001,992.591980,82,-47,43,5740.000000,-3290.000000,3010.000000,49,27.990723
A1,Thu 1970-01-01 01:00:00 CET,158.044,-2429,1361,-460,-340.059998,190.539993,-64.400002,-8,-47,1354,-5.856000,-34.403999,991.127991,83,-45,45,5810.000000,-3150.000000,3150.000000,52,28.173828
A1,Thu 1970-01-01 01:00:00 CET,159.044,-2443,1390,-454,-342.019989,194.600006,-63.560001,-10,-41,1353,-7.320000,-30.011999,990.395996,87,-41,42,6090.000000,-2870.000000,2940.000000,50,28.051758
A1,Thu 1970-01-01 01:00:00 CET,160.043,-2485,1407,-421,-347.899994,196.979996,-58.939999,-8,-47,1356,-5.856000,-34.403999,992.591980,82,-47,40,5740.000000,-3290.000000,2800.000000,51,28.112793
A1,Thu 1970-01-01 01:00:00 CET,161.044,-2448,1399,-474,-342.720001,195.860001,-66.360001,-11,-42,1355,-8.052000,-30.743999,991.859985,82,-47,39,5740.000000,-3290.000000,2730.000000,50,28.051758
A1,Thu 1970-01-01 01:00:00 CET,162.044,-2517,1332,-489,-352.380005,186.479996,-68.459999,-8,-46,1356,-5.856000,-33.672001,992.591980,82,-44,44,5740.000000,-3080.000000,3080.000000,50,28.051758
A1,Thu 1970-01-01 01:00:00 CET,163.045,-2480,1349,-408,-347.200012,188.860001,-57.119999,-8,-47,1351,-5.856000,-34.403999,988.932007,81,-43,42,5670.000000,-3010.000000,2940.000000,52,28.173828
A1,Thu 1970-01-01 01:00:00 CET,164.044,-2442,1370,-453,-341.880005,191.800003,-63.420002,-12,-42,1349,-8.784000,-30.743999,987.468018,87,-48,38,6090.000000,-3360.000000,2660.000000,53,28.234863
A1,Thu 1970-01-01 01:00:00 CET,165.044,-2470,1401,-528,-345.799988,196.139999,-73.919998,-8,-43,1354,-5.856000,-31.476000,991.127991,84,-44,45,5880.000000,-3080.000000,3150.000000,52,28.173828
A1,Thu 1970-01-01 01:00:00 CET,166.043,-2501,1370,-444,-350.140015,191.800003,-62.160000,-6,-47,1357,-4.392000,-34.403999,993.323975,87,-45,40,6090.000000,-3150.000000,2800.000000,50,28.051758
A1,Thu 1970-01-01 01:00:00 CET,167.043,-2468,1359,-437,-345.519989,190.259995,-61.180000,-8,-46,1356,-5.856000,-33.672001,992.591980,81,-49,43,5670.000000,-3430.000000,3010.000000,52,28.173828
A1,Thu 1970-01-01 01:00:00 CET,168.044,-2487,1362,-456,-348.179993,190.680008,-63.840000,-6,-46,1352,-4.392000,-33.672001,989.664001,85,-48,42,5950.000000,-3360.000000,2940.000000,52,28.173828
A1,Thu 1970-01-01 01:00:00 CET,169.043,-2508,1356,-420,-351.119995,189.839996,-58.799999,-13,-43,1352,-9.516000,-31.476000,989.664001,83,-48,44,5810.000000,-3360.000000,3080.000000,53,28.234863
A1,Thu 1970-01-01 01:00:00 CET,170.044,-2459,1398,-324,-344.260010,195.720001,-45.360001,-5,-45,1353,-3.660000,-32.939999,990.395996,83,-46,45,5810.000000,-3220.000000,3150.000000,53,28.234863
A1,Thu 1970-01-01 01:00:00 CET,171.043,-2427,1352,-368,-339.779999,189.279999,-51.520000,-12,-43,1350,-8.784000,-31.476000,988.200012,85,-46,43,5950.000000,-3220.000000,3010.000000,54,28.295898
A1,Thu 1970-01-01 01:00:00 CET,172.045,-2457,1373,-471,-343.980011,192.220001,-65.940002,-6,-47,1351,-4.392000,-34.403999,988.932007,79,-44,44,5530.000000,-3080.000000,3080.000000,51,28.112793
A1,Thu 1970-01-01 01:00:00 CET,173.044,-2486,1345,-400,-348.040009,188.300003,-56.000000,-11,-45,1353,-8.052000,-32.939999,990.395996,88,-45,43,6160.000000,-3150.000000,3010.000000,53,28.234863
A1,Thu 1970-01-01 01:00:00 CET,174.044,-2499,1364,-525,-349.860016,190.960007,-73.500000,-7,-47,1351,-5.124000,-34.403999,988.932007,82,-48,43,5740.000000,-3360.000000,3010.000000,52,28.173828
A1,Thu 1970-01-01 01:00:00 CET,175.044,-2446,1372,-482,-342.440002,192.080002,-67.480003,-11,-41,1352,-8.052000,-30.011999,989.664001,84,-42,45,5880.000000,-2940.000000,3150.000000,56,28.417969
A1,Thu 1970-01-01 01:00:00 CET,176.044,-2474,1371,-436,-346.360016,191.940002,-61.040001,-9,-43,1355,-6.588000,-31.476000,991.859985,82,-46,43,5740.000000,-3220.000000,3010.000000,55,28.356934
A1,Thu 1970-01-01 01:00:00 CET,177.043,-2429,1386,-401,-340.059998,194.039993,-56.139999,-9,-40,1351,-6.588000,-29.279999,988.932007,83,-46,41,5810.000000,-3220.000000,2870.000000,55,28.356934
A1,Thu 1970-01-01 01:00:00 CET,178.044,-2465,1328,-473,-345.100006,185.919998,-66.220001,-6,-47,1352,-4.392000,-34.403999,989.664001,85,-47,40,5950.000000,-3290.000000,2800.000000,53,28.234863
A1,Thu 1970-01-01 01:00:00 CET,179.039,-2493,1363,-427,-349.019989,190.820007,-59.779999,-12,-41,1351,-8.784000,-30.011999,988.932007,87,-47,42,6090.000000,-3290.000000,2940.000000,55,28.356934
A1,Thu 1970-01-01 01:00:00 CET,180.042,-2466,1358,-491,-345.239990,190.119995,-68.739998,-9,-45,1353,-6.588000,-32.939999,990.395996,75,-44,44,5250.000000,-3080.000000,3080.000000,55,28.356934
A1,Thu 1970-01-01 01:00:00 CET,181.044,-2490,1412,-379,-348.600006,197.680008,-53.060001,-12,-41,1354,-8.784000,-30.011999,991.127991,82,-45,44,5740.000000,-3150.000000,3080.000000,56,28.417969
A1,Thu 1970-01-01 01:00:00 CET,182.043,-2477,1344,-471,-346.779999,188.160004,-65.940002,-9,-45,1355,-6.588000,-32.939999,991.859985,86,-47,42,6020.000000,-3290.000000,2940.000000,57,28.479004
A1,Thu 1970-01-01 01:00:00 CET,183.043,-2487,1411,-440,-348.179993,197.539993,-61.599998,-12,-49,1354,-8.784000,-35.868000,991.127991,82,-44,41,5740.000000,-3080.000000,2870.000000,55,28.356934
A1,Thu 1970-01-01 01:00:00 CET,184.044,-2477,1339,-518,-346.779999,187.460007,-72.519997,-13,-44,1354,-9.516000,-32.208000,991.127991,84,-43,42,5880.000000,-3010.000000,2940.000000,55,28.356934
A1,Thu 1970-01-01 01:00:00 CET,185.044,-2508,1375,-522,-351.119995,192.500000,-73.080002,-9,-42,1356,-6.588000,-30.743999,992.591980,86,-45,44,6020.000000,-3150.000000,3080.000000,53,28.234863
A1,Thu 1970-01-01 01:00:00 CET,186.044,-2467,1382,-471,-345.380005,193.479996,-65.940002,-13,-43,1352,-9.516000,-31.476000,989.664001,83,-48,41,5810.000000,-3360.000000,2870.000000,58,28.540039
A1,Thu 1970-01-01 01:00:00 CET,187.044,-2468,1339,-425,-345.519989,187.460007,-59.500000,-14,-44,1356,-10.248000,-32.208000,992.591980,85,-45,40,5950.000000,-3150.000000,2800.000000,53,28.234863
A1,Thu 1970-01-01 01:00:00 CET,188.044,-2495,1388,-424,-349.299988,194.320007,-59.360001,-11,-41,1352,-8.052000,-30.011999,989.664001,83,-45,42,5810.000000,-3150.000000,2940.000000,57,28.479004
A1,Thu 1970-01-01 01:00:00 CET,189.044,-2525,1352,-416,-353.500000,189.279999,-58.240002,-11,-41,1353,-8.052000,-30.011999,990.395996,84,-49,43,5880.000000,-3430.000000,3010.000000,53,28.234863
A1,Thu 1970-01-01 01:00:00 CET,190.045,-2466,1379,-409,-345.239990,193.059998,-57.260002,-5,-45,1356,-3.660000,-32.939999,992.591980,78,-47,40,5460.000000,-3290.000000,2800.000000,55,28.356934
A1,Thu 1970-01-01 01:00:00 CET,191.044,-2494,1391,-442,-349.160004,194.740005,-61.880001,-8,-45,1355,-5.856000,-32.939999,991.859985,82,-44,42,5740.000000,-3080.000000,2940.000000,57,28.479004
A1,Thu 1970-01-01 01:00:00 CET,192.043,-2495,1379,-467,-349.299988,193.059998,-65.379997,-8,-43,1355,-5.856000,-31.476000,991.859985,83,-48,40,5810.000000,-3360.000000,2800.000000,58,28.540039
A1,Thu 1970-01-01 01:00:00 CET,193.039,-2456,1397,-481,-343.839996,195.580002,-67.340004,-13,-44,1356,-9.516000,-32.208000,992.591980,81,-49,42,5670.000000,-3430.000000,2940.000000,53,28.234863
A1,Thu 1970-01-01 01:00:00 CET,194.044,-2484,1400,-370,-347.760010,196.000000,-51.799999,-10,-44,1354,-7.320000,-32.208000,991.127991,81,-46,43,5670.000000,-3220.000000,3010.000000,57,28.479004
A1,Thu 1970-01-01 01:00:00 CET,195.043,-2476,1357,-447,-346.640015,189.979996,-62.580002,-10,-43,1355,-7.320000,-31.476000,991.859985,82,-46,42,5740.000000,-3220.000000,2940.000000,55,28.356934
A1,Thu 1970-01-01 01:00:00 CET,196.043,-2458,1390,-420,-344.119995,194.600006,-58.799999,-9,-40,1354,-6.588000,-29.279999,991.127991,82,-45,45,5740.000000,-3150.000000,3150.000000,56,28.417969
A1,Thu 1970-01-01 01:00:00 CET,197.043,-2484,1319,-453,-347.760010,184.660004,-63.420002,-10,-45,1353,-7.320000,-32.939999,990.395996,85,-46,40,5950.000000,-3220.000000,2800.000000,57,28.479004
A1,Thu 1970-01-01 01:00:00 CET,198.042,-2502,1391,-377,-350.279999,194.740005,-52.779999,-9,-40,1353,-6.588000,-29.279999,990.395996,81,-49,42,5670.000000,-3430.000000,2940.000000,55,28.356934
A1,Thu 1970-01-01 01:00:00 CET,199.043,-2473,1371,-420,-346.220001,191.940002,-58.799999,-10,-43,1351,-7.320000,-31.476000,988.932007,87,-46,39,6090.000000,-3220.000000,2730.000000,54,28.295898
A1,Thu 1970-01-01 01:00:00 CET,200.043,-2450,1354,-497,-343.000000,189.559998,-69.580002,-11,-42,1349,-8.052000,-30.743999,987.468018,85,-47,41,5950.000000,-3290.000000,2870.000000,54,28.295898
A1,Thu 1970-01-01 01:00:00 CET,201.043,-2447,1366,-451,-342.579987,191.240005,-63.139999,-7,-44,1358,-5.124000,-32.208000,994.055969,83,-48,43,5810.000000,-3360.000000,3010.000000,58,28.540039
A1,Thu 1970-01-01 01:00:00 CET,202.044,-2431,1355,-442,-340.339996,189.699997,-61.880001,-11,-45,1353,-8.052000,-32.939999,990.395996,85,-48,41,5950.000000,-3360.000000,2870.000000,56,28.417969
A1,Thu 1970-01-01 01:00:00 CET,203.044,-2452,1369,-470,-343.279999,191.660004,-65.800003,-5,-45,1354,-3.660000,-32.939999,991.127991,84,-43,43,5880.000000,-3010.000000,3010.000000,57,28.479004
A1,Thu 1970-01-01 01:00:00 CET,204.044,-2418,1362,-429,-338.519989,190.680008,-60.060001,-6,-45,1355,-4.392000,-32.939999,991.859985,79,-47,39,5530.000000,-3290.000000,2730.000000,57,28.479004
A1,Thu 1970-01-01 01:00:00 CET,205.042,-2392,1347,-510,-334.880005,188.580002,-71.400002,-9,-49,1355,-6.588000,-35.868000,991.859985,78,-46,44,5460.000000,-3220.000000,3080.000000,53,28.234863
A1,Thu 1970-01-01 01:00:00 CET,206.042,-2456,1395,-470,-343.839996,195.300003,-65.800003,-5,-45,1350,-3.660000,-32.939999,988.200012,90,-46,39,6300.000000,-3220.000000,2730.000000,61,28.723145
A1,Thu 1970-01-01 01:00:00 CET,207.043,-2508,1381,-500,-351.119995,193.339996,-70.000000,-10,-47,1351,-7.320000,-34.403999,988.932007,81,-48,46,5670.000000,-3360.000000,3220.000000,60,28.662109
A1,Thu 1970-01-01 01:00:00 CET,208.044,-2504,1391,-477,-350.559998,194.740005,-66.779999,-8,-44,1354,-5.856000,-32.208000,991.127991,84,-45,42,5880.000000,-3150.000000,2940.000000,59,28.601074
A1,Thu 1970-01-01 01:00:00 CET,209.043,-2486,1400,-488,-348.040009,196.000000,-68.320000,-8,-42,1349,-5.856000,-30.743999,987.468018,86,-46,42,6020.000000,-3220.000000,2940.000000,57,28.479004
A1,Thu 1970-01-01 01:00:00 CET,210.042,-2511,1388,-509,-351.540009,194.320007,-71.260002,-6,-40,1348,-4.392000,-29.279999,986.735962,86,-50,40,6020.000000,-3500.000000,2800.000000,55,28.356934
A1,Thu 1970-01-01 01:00:00 CET,211.042,-2469,1393,-508,-345.660004,195.020004,-71.120003,-15,-42,1356,-10.980000,-30.743999,992.591980,87,-46,38,6090.000000,-3220.000000,2660.000000,59,28.601074
A1,Thu 1970-01-01 01:00:00 CET,212.043,-2531,1394,-429,-354.339996,195.160004,-60.060001,-9,-44,1354,-6.588000,-32.208000,991.127991,85,-49,40,5950.000000,-3430.000000,2800.000000,58,28.540039
A1,Thu 1970-01-01 01:00:00 CET,213.044,-2478,1428,-373,-346.920013,199.919998,-52.220001,-12,-45,1353,-8.784000,-32.939999,990.395996,86,-51,41,6020.000000,-3570.000000,2870.000000,59,28.601074
A1,Thu 1970-01-01 01:00:00 CET,214.044,-2424,1397,-432,-339.360016,195.580002,-60.480000,-10,-45,1353,-7.320000,-32.939999,990.395996,88,-48,45,6160.000000,-3360.000000,3150.000000,57,28.479004
A1,Thu 1970-01-01 01:00:00 CET,215.043,-2440,1414,-542,-341.600006,197.960007,-75.879997,-8,-48,1356,-5.856000,-35.136002,992.591980,84,-50,39,5880.000000,-3500.000000,2730.000000,61,28.723145
A1,Thu 1970-01-01 01:00:00 CET,216.044,-2421,1360,-472,-338.940002,190.399994,-66.080002,-5,-45,1352,-3.660000,-32.939999,989.664001,80,-48,41,5600.000000,-3360.000000,2870.000000,58,28.540039
A1,Thu 1970-01-01 01:00:00 CET,217.044,-2470,1395,-504,-345.799988,195.300003,-70.559998,-8,-45,1353,-5.856000,-32.939999,990.395996,82,-43,42,5740.000000,-3010.000000,2940.000000,58,28.540039
A1,Thu 1970-01-01 01:00:00 CET,218.043,-2479,1359,-516,-347.059998,190.259995,-72.239998,-11,-48,1354,-8.052000,-35.136002,991.127991,83,-46,43,5810.000000,-3220.000000,3010.000000,60,28.662109
A1,Thu 1970-01-01 01:00:00 CET,219.044,-2513,1390,-561,-351.820007,194.600006,-78.540001,-15,-43,1357,-10.980000,-31.476000,993.323975,83,-49,42,5810.000000,-3430.000000,2940.000000,59,28.601074
A1,Thu 1970-01-01 01:00:00 CET,220.044,-2502,1368,-443,-350.279999,191.520004,-62.020000,-7,-42,1354,-5.124000,-30.743999,991.127991,90,-45,42,6300.000000,-3150.000000,2940.000000,61,28.723145
A1,Thu 1970-01-01 01:00:00 CET,221.043,-2466,1377,-426,-345.239990,192.779999,-59.639999,-11,-41,1351,-8.052000,-30.011999,988.932007,84,-48,41,5880.000000,-3360.000000,2870.000000,59,28.601074
A1,Thu 1970-01-01 01:00:00 CET,222.044,-2513,1399,-472,-351.820007,195.860001,-66.080002,-6,-40,1352,-4.392000,-29.279999,989.664001,85,-43,43,5950.000000,-3010.000000,3010.000000,65,28.967285
A1,Thu 1970-01-01 01:00:00 CET,223.043,-2480,1356,-483,-347.200012,189.839996,-67.620003,-9,-45,1355,-6.588000,-32.939999,991.859985,82,-45,45,5740.000000,-3150.000000,3150.000000,60,28.662109
A1,Thu 1970-01-01 01:00:00 CET,224.043,-2514,1287,-517,-351.959991,180.180008,-72.379997,-7,-46,1357,-5.124000,-33.672001,993.323975,86,-46,44,6020.000000,-3220.000000,3080.000000,61,28.723145
A1,Thu 1970-01-01 01:00:00 CET,225.042,-2504,1373,-430,-350.559998,192.220001,-60.200001,-8,-47,1352,-5.856000,-34.403999,989.664001,82,-49,39,5740.000000,-3430.000000,2730.000000,61,28.723145
A1,Thu 1970-01-01 01:00:00 CET,226.043,-2473,1425,-410,-346.220001,199.500000,-57.400002,-12,-39,1352,-8.784000,-28.548000,989.664001,86,-48,42,6020.000000,-3360.000000,2940.000000,58,28.540039
A1,Thu 1970-01-01 01:00:00 CET,227.044,-2498,1420,-386,-349.720001,198.800003,-54.040001,-11,-45,1352,-8.052000,-32.939999,989.664001,87,-44,42,6090.000000,-3080.000000,2940.000000,61,28.723145
A1,Thu 1970-01-01 01:00:00 CET,228.044,-2472,1390,-426,-346.079987,194.600006,-59.639999,-11,-45,1352,-8.052000,-32.939999,989.664001,85,-50,42,5950.000000,-3500.000000,2940.000000,59,28.601074
A1,Thu 1970-01-01 01:00:00 CET,229.044,-2529,1412,-410,-354.059998,197.680008,-57.400002,-9,-42,1349,-6.588000,-30.743999,987.468018,85,-50,38,5950.000000,-3500.000000,2660.000000,61,28.723145
A1,Thu 1970-01-01 01:00:00 CET,230.044,-2467,1372,-467,-345.380005,192.080002,-65.379997,-9,-43,1355,-6.588000,-31.476000,991.859985,81,-46,41,5670.000000,-3220.000000,2870.000000,63,28.845215
A1,Thu 1970-01-01 01:00:00 CET,231.044,-2474,1356,-488,-346.360016,189.839996,-68.320000,-8,-46,1352,-5.856000,-33.672001,989.664001,86,-44,44,6020.000000,-3080.000000,3080.000000,61,28.723145
A1,Thu 1970-01-01 01:00:00 CET,232.043,-2495,1408,-413,-349.299988,197.119995,-57.820000,-13,-45,1353,-9.516000,-32.939999,990.395996,88,-46,42,6160.000000,-3220.000000,2940.000000,61,28.723145
A1,Thu 1970-01-01 01:00:00 CET,233.042,-2478,1337,-469,-346.920013,187.180008,-65.660004,-15,-43,1353,-10.980000,-31.476000,990.395996,86,-42,42,6020.000000,-2940.000000,2940.000000,64,28.906250
A1,Thu 1970-01-01 01:00:00 CET,234.042,-2542,1411,-504,-355.880005,197.539993,-70.559998,-10,-46,1356,-7.320000,-33.672001,992.591980,87,-46,41,6090.000000,-3220.000000,2870.000000,62,28.784180
A1,Thu 1970-01-01 01:00:00 CET,235.045,-2498,1425,-440,-349.720001,199.500000,-61.599998,-12,-42,1354,-8.784000,-30.743999,991.127991,84,-49,38,5880.000000,-3430.000000,2660.000000,61,28.723145
A1,Thu 1970-01-01 01:00:00 CET,236.044,-2465,1418,-464,-345.100006,198.520004,-64.959999,-9,-42,1353,-6.588000,-30.743999,990.395996,85,-45,42,5950.000000,-3150.000000,2940.000000,61,28.723145
A1,Thu 1970-01-01 01:00:00 CET,237.044,-2468,1381,-490,-345.519989,193.339996,-68.599998,-10,-46,1356,-7.320000,-33.672001,992.591980,86,-45,45,6020.000000,-3150.000000,3150.000000,62,28.784180
A1,Thu 1970-01-01 01:00:00 CET,238.044,-2499,1371,-466,-349.860016,191.940002,-65.239998,-12,-42,1350,-8.784000,-30.743999,988.200012,80,-46,42,5600.000000,-3220.000000,2940.000000,65,28.967285
A1,Thu 1970-01-01 01:00:00 CET,239.044,-2481,1358,-393,-347.339996,190.119995,-55.020000,-11,-43,1353,-8.052000,-31.476000,990.395996,83,-47,45,5810.000000,-3290.000000,3150.000000,64,28.906250
A1,Thu 1970-01-01 01:00:00 CET,240.044,-2451,1383,-324,-343.140015,193.619995,-45.360001,-8,-46,1349,-5.856000,-33.672001,987.468018,84,-44,40,5880.000000,-3080.000000,2800.000000,61,28.723145
A1,Thu 1970-01-01 01:00:00 CET,241.044,-2484,1403,-411,-347.760010,196.419998,-57.540001,-9,-46,1350,-6.588000,-33.672001,988.200012,84,-45,40,5880.000000,-3150.000000,2800.000000,63,28.845215
A1,Thu 1970-01-01 01:00:00 CET,242.044,-2471,1357,-448,-345.940002,189.979996,-62.720001,-12,-45,1352,-8.784000,-32.939999,989.664001,87,-49,42,6090.000000,-3430.000000,2940.000000,64,28.906250
A1,Thu 1970-01-01 01:00:00 CET,243.041,-2436,1371,-489,-341.040009,191.940002,-68.459999,-9,-43,1352,-6.588000,-31.476000,989.664001,81,-39,42,5670.000000,-2730.000000,2940.000000,67,29.089355
A1,Thu 1970-01-01 01:00:00 CET,244.042,-2456,1385,-359,-343.839996,193.899994,-50.259998,-12,-45,1357,-8.784000,-32.939999,993.323975,86,-46,42,6020.000000,-3220.000000,2940.000000,64,28.906250
A1,Thu 1970-01-01 01:00:00 CET,245.042,-2439,1372,-445,-341.459991,192.080002,-62.299999,-9,-44,1354,-6.588000,-32.208000,991.127991,85,-50,42,5950.000000,-3500.000000,2940.000000,64,28.906250
A1,Thu 1970-01-01 01:00:00 CET,246.042,-2508,1390,-458,-351.119995,194.600006,-64.120003,-7,-46,1353,-5.124000,-33.672001,990.395996,84,-45,41,5880.000000,-3150.000000,2870.000000,64,28.906250
A1,Thu 1970-01-01 01:00:00 CET,247.043,-2486,1419,-444,-348.040009,198.660004,-62.160000,-9,-49,1355,-6.588000,-35.868000,991.859985,83,-47,43,5810.000000,-3290.000000,3010.000000,65,28.967285
A1,Thu 1970-01-01 01:00:00 CET,248.042,-2487,1371,-384,-348.179993,191.940002,-53.760002,-8,-43,1356,-5.856000,-31.476000,992.591980,87,-47,43,6090.000000,-3290.000000,3010.000000,63,28.845215
A1,Thu 1970-01-01 01:00:00 CET,249.042,-2463,1408,-452,-344.820007,197.119995,-63.279999,-14,-46,1354,-10.248000,-33.672001,991.127991,84,-48,38,5880.000000,-3360.000000,2660.000000,65,28.967285
A1,Thu 1970-01-01 01:00:00 CET,250.042,-2507,1416,-374,-350.980011,198.240005,-52.360001,-6,-43,1350,-4.392000,-31.476000,988.200012,85,-49,40,5950.000000,-3430.000000,2800.000000,65,28.967285
A1,Thu 1970-01-01 01:00:00 CET,251.044,-2519,1411,-442,-352.660004,197.539993,-61.880001,-12,-43,1350,-8.784000,-31.476000,988.200012,86,-48,40,6020.000000,-3360.000000,2800.000000,65,28.967285
A1,Thu 1970-01-01 01:00:00 CET,252.044,-2547,1402,-462,-356.579987,196.279999,-64.680000,-12,-39,1353,-8.784000,-28.548000,990.395996,88,-49,45,6160.000000,-3430.000000,3150.000000,65,28.967285
A1,Thu 1970-01-01 01:00:00 CET,253.045,-2487,1370,-391,-348.179993,191.800003,-54.740002,-6,-43,1349,-4.392000,-31.476000,987.468018,82,-47,44,5740.000000,-3290.000000,3080.000000,62,28.784180
A1,Thu 1970-01-01 01:00:00 CET,254.044,-2518,1367,-431,-352.519989,191.380005,-60.340000,-15,-44,1347,-10.980000,-32.208000,986.003967,89,-48,43,6230.000000,-3360.000000,3010.000000,68,29.150391
A1,Thu 1970-01-01 01:00:00 CET,255.044,-2457,1382,-388,-343.980011,193.479996,-54.320000,-8,-45,1348,-5.856000,-32.939999,986.735962,86,-50,39,6020.000000,-3500.000000,2730.000000,65,28.967285
A1,Thu 1970-01-01 01:00:00 CET,256.043,-2497,1359,-414,-349.579987,190.259995,-57.959999,-27,-50,1351,-19.764000,-36.599998,988.932007,85,-49,42,5950.000000,-3430.000000,2940.000000,66,29.028320
A1,Thu 1970-01-01 01:00:00 CET,257.042,-2467,1392,-447,-345.380005,194.880005,-62.580002,-10,-46,1349,-7.320000,-33.672001,987.468018,88,-46,43,6160.000000,-3220.000000,3010.000000,64,28.906250
A1,Thu 1970-01-01 01:00:00 CET,258.043,-2462,1395,-377,-344.679993,195.300003,-52.779999,-5,-45,1351,-3.660000,-32.939999,988.932007,89,-44,43,6230.000000,-3080.000000,3010.000000,66,29.028320
A1,Thu 1970-01-01 01:00:00 CET,259.043,-2442,1381,-372,-341.880005,193.339996,-52.080002,-15,-46,1356,-10.980000,-33.672001,992.591980,87,-46,37,6090.000000,-3220.000000,2590.000000,67,29.089355
A1,Thu 1970-01-01 01:00:00 CET,260.043,-2451,1397,-412,-343.140015,195.580002,-57.680000,-6,-44,1352,-4.392000,-32.208000,989.664001,88,-41,41,6160.000000,-2870.000000,2870.000000,64,28.906250
A1,Thu 1970-01-01 01:00:00 CET,261.043,-2455,1355,-432,-343.700012,189.699997,-60.480000,-8,-43,1355,-5.856000,-31.476000,991.859985,85,-49,42,5950.000000,-3430.000000,2940.000000,70,29.272461
A1,Thu 1970-01-01 01:00:00 CET,262.045,-2439,1419,-360,-341.459991,198.660004,-50.400002,-12,-39,1352,-8.784000,-28.548000,989.664001,83,-45,42,5810.000000,-3150.000000,2940.000000,66,29.028320
A1,Thu 1970-01-01 01:00:00 CET,263.044,-2453,1360,-381,-343.420013,190.399994,-53.340000,-5,-44,1352,-3.660000,-32.208000,989.664001,90,-47,42,6300.000000,-3290.000000,2940.000000,68,29.150391
A1,Thu 1970-01-01 01:00:00 CET,264.043,-2489,1380,-330,-348.459991,193.199997,-46.200001,-14,-43,1351,-10.248000,-31.476000,988.932007,90,-45,39,6300.000000,-3150.000000,2730.000000,66,29.028320
A1,Thu 1970-01-01 01:00:00 CET,265.043,-2486,1371,-337,-348.040009,191.940002,-47.180000,-13,-45,1350,-9.516000,-32.939999,988.200012,87,-46,41,6090.000000,-3220.000000,2870.000000,69,29.211426
A1,Thu 1970-01-01 01:00:00 CET,266.043,-2496,1418,-355,-349.440002,198.520004,-49.700001,-11,-42,1349,-8.052000,-30.743999,987.468018,91,-52,40,6370.000000,-3640.000000,2800.000000,70,29.272461
A1,Thu 1970-01-01 01:00:00 CET,267.044,-2501,1342,-314,-350.140015,187.880005,-43.959999,-10,-46,1352,-7.320000,-33.672001,989.664001,85,-45,41,5950.000000,-3150.000000,2870.000000,69,29.211426
A1,Thu 1970-01-01 01:00:00 CET,268.043,-2447,1329,-405,-342.579987,186.059998,-56.700001,-12,-46,1356,-8.784000,-33.672001,992.591980,85,-45,43,5950.000000,-3150.000000,3010.000000,69,29.211426
A1,Thu 1970-01-01 01:00:00 CET,269.042,-2491,1357,-381,-348.739990,189.979996,-53.340000,-9,-46,1352,-6.588000,-33.672001,989.664001,84,-48,43,5880.000000,-3360.000000,3010.000000,69,29.211426
A1,Thu 1970-01-01 01:00:00 CET,270.043,-2473,1358,-461,-346.220001,190.119995,-64.540001,-9,-42,1349,-6.588000,-30.743999,987.468018,86,-49,38,6020.000000,-3430.000000,2660.000000,66,29.028320
A1,Thu 1970-01-01 01:00:00 CET,271.045,-2498,1359,-365,-349.720001,190.259995,-51.099998,-12,-45,1347,-8.784000,-32.939999,986.003967,84,-44,41,5880.000000,-3080.000000,2870.000000,69,29.211426
A1,Thu 1970-01-01 01:00:00 CET,272.042,-2454,1358,-414,-343.559998,190.119995,-57.959999,-13,-44,1353,-9.516000,-32.208000,990.395996,84,-44,47,5880.000000,-3080.000000,3290.000000,68,29.150391
A1,Thu 1970-01-01 01:00:00 CET,273.042,-2524,1348,-353,-353.360016,188.720001,-49.420002,-12,-42,1350,-8.784000,-30.743999,988.200012,88,-46,42,6160.000000,-3220.000000,2940.000000,71,29.333496
A1,Thu 1970-01-01 01:00:00 CET,274.042,-2454,1345,-371,-343.559998,188.300003,-51.939999,-8,-47,1353,-5.856000,-34.403999,990.395996,82,-47,44,5740.000000,-3290.000000,3080.000000,69,29.211426
A1,Thu 1970-01-01 01:00:00 CET,275.044,-2441,1369,-425,-341.739990,191.660004,-59.500000,-12,-45,1355,-8.784000,-32.939999,991.859985,87,-48,39,6090.000000,-3360.000000,2730.000000,69,29.211426
A1,Thu 1970-01-01 01:00:00 CET,276.044,-2456,1409,-420,-343.839996,197.259995,-58.799999,-10,-44,1352,-7.320000,-32.208000,989.664001,87,-45,42,6090.000000,-3150.000000,2940.000000,71,29.333496
A1,Thu 1970-01-01 01:00:00 CET,277.044,-2452,1354,-440,-343.279999,189.559998,-61.599998,-7,-40,1352,-5.124000,-29.279999,989.664001,86,-47,37,6020.000000,-3290.000000,2590.000000,70,29.272461
A1,Thu 1970-01-01 01:00:00 CET,278.042,-2448,1369,-526,-342.720001,191.660004,-73.639999,-14,-44,1353,-10.248000,-32.208000,990.395996,87,-45,40,6090.000000,-3150.000000,2800.000000,70,29.272461
A1,Thu 1970-01-01 01:00:00 CET,279.044,-2515,1352,-397,-352.100006,189.279999,-55.580002,-8,-45,1350,-5.856000,-32.939999,988.200012,87,-45,43,6090.000000,-3150.000000,3010.000000,71,29.333496
A1,Thu 1970-01-01 01:00:00 CET,280.045,-2501,1373,-410,-350.140015,192.220001,-57.400002,-5,-35,1355,-3.660000,-25.619999,991.859985,90,-46,43,6300.000000,-3220.000000,3010.000000,69,29.211426
A1,Thu 1970-01-01 01:00:00 CET,281.043,-2502,1376,-403,-350.279999,192.639999,-56.420002,-11,-43,1355,-8.052000,-31.476000,991.859985,89,-49,42,6230.000000,-3430.000000,2940.000000,68,29.150391
A1,Thu 1970-01-01 01:00:00 CET,282.038,-2464,1408,-406,-344.959991,197.119995,-56.840000,-8,-42,1356,-5.856000,-30.743999,992.591980,87,-50,40,6090.000000,-3500.000000,2800.000000,70,29.272461
A1,Thu 1970-01-01 01:00:00 CET,283.042,-2499,1348,-364,-349.860016,188.720001,-50.959999,-9,-43,1357,-6.588000,-31.476000,993.323975,80,-45,43,5600.000000,-3150.000000,3010.000000,70,29.272461
A1,Thu 1970-01-01 01:00:00 CET,284.043,-2516,1351,-380,-352.239990,189.139999,-53.200001,-16,-45,1355,-11.712000,-32.939999,991.859985,90,-49,42,6300.000000,-3430.000000,2940.000000,73,29.455566
A1,Thu 1970-01-01 01:00:00 CET,285.044,-2443,1350,-402,-342.019989,189.000000,-56.279999,-9,-45,1350,-6.588000,-32.939999,988.200012,90,-47,40,6300.000000,-3290.000000,2800.000000,71,29.333496
A1,Thu 1970-01-01 01:00:00 CET,286.044,-2502,1307,-380,-350.279999,182.979996,-53.200001,-12,-41,1354,-8.784000,-30.011999,991.127991,82,-46,42,5740.000000,-3220.000000,2940.000000,70,29.272461
A1,Thu 1970-01-01 01:00:00 CET,287.044,-2468,1405,-390,-345.519989,196.699997,-54.599998,-6,-46,1353,-4.392000,-33.672001,990.395996,92,-46,40,6440.000000,-3220.000000,2800.000000,67,29.089355
A1,Thu 1970-01-01 01:00:00 CET,288.043,-2448,1344,-391,-342.720001,188.160004,-54.740002,-11,-43,1352,-8.052000,-31.476000,989.664001,84,-46,42,5880.000000,-3220.000000,2940.000000,72,29.394531
A1,Thu 1970-01-01 01:00:00 CET,289.045,-2490,1343,-320,-348.600006,188.020004,-44.799999,-10,-38,1351,-7.320000,-27.816000,988.932007,91,-47,41,6370.000000,-3290.000000,2870.000000,73,29.455566
A1,Thu 1970-01-01 01:00:00 CET,290.044,-2490,1335,-414,-348.600006,186.899994,-57.959999,-17,-47,1347,-12.444000,-34.403999,986.003967,86,-43,41,6020.000000,-3010.000000,2870.000000,72,29.394531
A1,Thu 1970-01-01 01:00:00 CET,291.042,-2501,1354,-418,-350.140015,189.559998,-58.520000,-9,-45,1350,-6.588000,-32.939999,988.200012,88,-47,42,6160.000000,-3290.000000,2940.000000,70,29.272461
A1,Thu 1970-01-01 01:00:00 CET,292.042,-2491,1368,-419,-348.739990,191.520004,-58.660000,-9,-44,1351,-6.588000,-32.208000,988.932007,90,-51,40,6300.000000,-3570.000000,2800.000000,70,29.272461
A1,Thu 1970-01-01 01:00:00 CET,293.042,-2467,1384,-437,-345.380005,193.759995,-61.180000,-10,-43,1349,-7.320000,-31.476000,987.468018,83,-43,43,5810.000000,-3010.000000,3010.000000,71,29.333496
A1,Thu 1970-01-01 01:00:00 CET,294.042,-2479,1355,-423,-347.059998,189.699997,-59.220001,-14,-45,1349,-10.248000,-32.939999,987.468018,87,-46,43,6090.000000,-3220.000000,3010.000000,70,29.272461
A1,Thu 1970-01-01 01:00:00 CET,295.042,-2452,1311,-440,-343.279999,183.539993,-61.599998,-9,-43,1348,-6.588000,-31.476000,986.735962,87,-48,39,6090.000000,-3360.000000,2730.000000,69,29.211426
A1,Thu 1970-01-01 01:00:00 CET,296.041,-2538,1358,-429,-355.320007,190.119995,-60.060001,-6,-48,1353,-4.392000,-35.136002,990.395996,84,-46,39,5880.000000,-3220.000000,2730.000000,74,29.516602
A1,Thu 1970-01-01 01:00:00 CET,297.042,-2452,1406,-376,-343.279999,196.839996,-52.639999,0,-45,1351,0.000000,-32.939999,988.932007,87,-49,38,6090.000000,-3430.000000,2660.000000,71,29.333496
A1,Thu 1970-01-01 01:00:00 CET,298.044,-2454,1324,-400,-343.559998,185.360001,-56.000000,-14,-43,1353,-10.248000,-31.476000,990.395996,88,-47,47,6160.000000,-3290.000000,3290.000000,74,29.516602
A1,Thu 1970-01-01 01:00:00 CET,299.042,-2476,1366,-418,-346.640015,191.240005,-58.520000,-11,-47,1350,-8.052000,-34.403999,988.200012,84,-47,42,5880.000000,-3290.000000,2940.000000,72,29.394531
A1,Thu 1970-01-01 01:00:00 CET,300.043,-2480,1410,-359,-347.200012,197.399994,-50.259998,-6,-47,1352,-4.392000,-34.403999,989.664001,86,-47,42,6020.000000,-3290.000000,2940.000000,74,29.516602
A1,Thu 1970-01-01 01:00:00 CET,301.044,-2457,1377,-411,-343.980011,192.779999,-57.540001,-11,-42,1353,-8.052000,-30.743999,990.395996,87,-50,43,6090.000000,-3500.000000,3010.000000,73,29.455566
A1,Thu 1970-01-01 01:00:00 CET,302.042,-2474,1377,-335,-346.360016,192.779999,-46.900002,-11,-39,1354,-8.052000,-28.548000,991.127991,85,-46,43,5950.000000,-3220.000000,3010.000000,73,29.455566
A1,Thu 1970-01-01 01:00:00 CET,303.042,-2493,1364,-390,-349.019989,190.960007,-54.599998,-6,-46,1348,-4.392000,-33.672001,986.735962,86,-43,41,6020.000000,-3010.000000,2870.000000,70,29.272461
A1,Thu 1970-01-01 01:00:00 CET,304.043,-2483,1354,-365,-347.619995,189.559998,-51.099998,-9,-44,1351,-6.588000,-32.208000,988.932007,89,-45,41,6230.000000,-3150.000000,2870.000000,70,29.272461
A1,Thu 1970-01-01 01:00:00 CET,305.044,-2493,1327,-422,-349.019989,185.779999,-59.080002,-9,-44,1351,-6.588000,-32.208000,988.932007,81,-44,37,5670.000000,-3080.000000,2590.000000,75,29.577637
A1,Thu 1970-01-01 01:00:00 CET,306.044,-2488,1358,-441,-348.320007,190.119995,-61.740002,-5,-48,1354,-3.660000,-35.136002,991.127991,87,-49,43,6090.000000,-3430.000000,3010.000000,75,29.577637
A1,Thu 1970-01-01 01:00:00 CET,307.042,-2465,1376,-391,-345.100006,192.639999,-54.740002,-10,-44,1354,-7.320000,-32.208000,991.127991,91,-51,44,6370.000000,-3570.000000,3080.000000,74,29.516602
A1,Thu 1970-01-01 01:00:00 CET,308.041,-2467,1372,-464,-345.380005,192.080002,-64.959999,-8,-48,1352,-5.856000,-35.136002,989.664001,89,-42,41,6230.000000,-2940.000000,2870.000000,74,29.516602
A1,Thu 1970-01-01 01:00:00 CET,309.044,-2490,1342,-419,-348.600006,187.880005,-58.660000,-7,-46,1348,-5.124000,-33.672001,986.735962,87,-48,41,6090.000000,-3360.000000,2870.000000,75,29.577637
A1,Thu 1970-01-01 01:00:00 CET,310.043,-2511,1317,-446,-351.540009,184.380005,-62.439999,-6,-46,1353,-4.392000,-33.672001,990.395996,89,-45,38,6230.000000,-3150.000000,2660.000000,74,29.516602
A1,Thu 1970-01-01 01:00:00 CET,311.043,-2472,1414,-478,-346.079987,197.960007,-66.919998,-14,-39,1350,-10.248000,-28.548000,988.200012,90,-47,40,6300.000000,-3290.000000,2800.000000,76,29.638672
A1,Thu 1970-01-01 01:00:00 CET,312.044,-2457,1431,-488,-343.980011,200.339996,-68.320000,-6,-43,1353,-4.392000,-31.476000,990.395996,85,-48,46,5950.000000,-3360.000000,3220.000000,78,29.760742
A1,Thu 1970-01-01 01:00:00 CET,313.044,-2485,1403,-544,-347.899994,196.419998,-76.160004,-12,-37,1365,-8.784000,-27.084000,999.179993,86,-45,44,6020.000000,-3150.000000,3080.000000,74,29.516602
A1,Thu 1970-01-01 01:00:00 CET,314.044,-2444,1388,-420,-342.160004,194.320007,-58.799999,-12,-49,1350,-8.784000,-35.868000,988.200012,85,-48,41,5950.000000,-3360.000000,2870.000000,75,29.577637
A1,Thu 1970-01-01 01:00:00 CET,315.044,-2427,1360,-555,-339.779999,190.399994,-77.699997,-8,-43,1357,-5.856000,-31.476000,993.323975,85,-47,42,5950.000000,-3290.000000,2940.000000,78,29.760742
A1,Thu 1970-01-01 01:00:00 CET,316.045,-2440,1369,-563,-341.600006,191.660004,-78.820000,-9,-42,1354,-6.588000,-30.743999,991.127991,87,-48,40,6090.000000,-3360.000000,2800.000000,78,29.760742
A1,Thu 1970-01-01 01:00:00 CET,317.042,-2479,1373,-460,-347.059998,192.220001,-64.400002,-7,-46,1349,-5.124000,-33.672001,987.468018,84,-47,41,5880.000000,-3290.000000,2870.000000,74,29.516602
A1,Thu 1970-01-01 01:00:00 CET,318.042,-2477,1420,-528,-346.779999,198.800003,-73.919998,-6,-49,1355,-4.392000,-35.868000,991.859985,82,-50,40,5740.000000,-3500.000000,2800.000000,76,29.638672
A1,Thu 1970-01-01 01:00:00 CET,319.042,-2469,1361,-489,-345.660004,190.539993,-68.459999,-11,-48,1355,-8.052000,-35.136002,991.859985,85,-45,44,5950.000000,-3150.000000,3080.000000,75,29.577637
A1,Thu 1970-01-01 01:00:00 CET,320.041,-2495,1429,-534,-349.299988,200.059998,-74.760002,-12,-56,1353,-8.784000,-40.992001,990.395996,88,-47,43,6160.000000,-3290.000000,3010.000000,76,29.638672
A1,Thu 1970-01-01 01:00:00 CET,321.042,-2490,1358,-511,-348.600006,190.119995,-71.540001,-11,-32,1351,-8.052000,-23.424000,988.932007,86,-45,41,6020.000000,-3150.000000,2870.000000,75,29.577637
A1,Thu 1970-01-01 01:00:00 CET,322.043,-2407,1333,-510,-336.980011,186.619995,-71.400002,-7,-52,1348,-5.124000,-38.063999,986.735962,85,-44,41,5950.000000,-3080.000000,2870.000000,80,29.882812
A1,Thu 1970-01-01 01:00:00 CET,323.043,-2413,1305,-478,-337.820007,182.699997,-66.919998,-18,-44,1354,-13.176000,-32.208000,991.127991,88,-52,41,6160.000000,-3640.000000,2870.000000,79,29.821777
A1,Thu 1970-01-01 01:00:00 CET,324.043,-2448,1320,-567,-342.720001,184.800003,-79.379997,-11,-41,1354,-8.052000,-30.011999,991.127991,89,-48,42,6230.000000,-3360.000000,2940.000000,80,29.882812
A1,Thu 1970-01-01 01:00:00 CET,325.044,-2439,1315,-549,-341.459991,184.100006,-76.860001,-7,-50,1350,-5.124000,-36.599998,988.200012,90,-48,44,6300.000000,-3360.000000,3080.000000,77,29.699707
A1,Thu 1970-01-01 01:00:00 CET,326.043,-2430,1304,-484,-340.200012,182.559998,-67.760002,-6,-46,1353,-4.392000,-33.672001,990.395996,85,-51,42,5950.000000,-3570.000000,2940.000000,79,29.821777
A1,Thu 1970-01-01 01:00:00 CET,327.043,-2412,1343,-534,-337.679993,188.020004,-74.760002,-13,-46,1353,-9.516000,-33.672001,990.395996,87,-56,36,6090.000000,-3920.000000,2520.000000,79,29.821777
A1,Thu 1970-01-01 01:00:00 CET,328.043,-2448,1334,-500,-342.720001,186.759995,-70.000000,-13,-55,1354,-9.516000,-40.259998,991.127991,86,-45,45,6020.000000,-3150.000000,3150.000000,78,29.760742
A1,Thu 1970-01-01 01:00:00 CET,329.043,-2421,1317,-573,-338.940002,184.380005,-80.220001,-18,-41,1350,-13.176000,-30.011999,988.200012,85,-48,43,5950.000000,-3360.000000,3010.000000,78,29.760742
A1,Thu 1970-01-01 01:00:00 CET,330.043,-2436,1349,-588,-341.040009,188.860001,-82.320000,1,-44,1349,0.732000,-32.208000,987.468018,90,-49,42,6300.000000,-3430.000000,2940.000000,76,29.638672
A1,Thu 1970-01-01 01:00:00 CET,331.044,-2473,1310,-557,-346.220001,183.399994,-77.980003,-15,-48,1356,-10.980000,-35.136002,992.591980,88,-46,42,6160.000000,-3220.000000,2940.000000,77,29.699707
A1,Thu 1970-01-01 01:00:00 CET,332.044,-2406,1373,-527,-336.839996,192.220001,-73.779999,-12,-48,1351,-8.784000,-35.136002,988.932007,86,-52,40,6020.000000,-3640.000000,2800.000000,78,29.760742
A1,Thu 1970-01-01 01:00:00 CET,333.042,-2422,1274,-435,-339.079987,178.360001,-60.900002,-2,-44,1351,-1.464000,-32.208000,988.932007,81,-46,43,5670.000000,-3220.000000,3010.000000,79,29.821777
A1,Thu 1970-01-01 01:00:00 CET,334.043,-2463,1342,-465,-344.820007,187.880005,-65.099998,-11,-44,1352,-8.052000,-32.208000,989.664001,90,-50,40,6300.000000,-3500.000000,2800.000000,81,29.943848
A1,Thu 1970-01-01 01:00:00 CET,335.043,-2531,1343,-387,-354.339996,188.020004,-54.180000,-10,-46,1350,-7.320000,-33.672001,988.200012,82,-51,39,5740.000000,-3570.000000,2730.000000,78,29.760742
A1,Thu 1970-01-01 01:00:00 CET,336.043,-2489,1277,-304,-348.459991,178.779999,-42.560001,-11,-42,1351,-8.052000,-30.743999,988.932007,90,-49,43,6300.000000,-3430.000000,3010.000000,78,29.760742
A1,Thu 1970-01-01 01:00:00 CET,337.043,-2509,1327,-371,-351.260010,185.779999,-51.939999,-9,-44,1352,-6.588000,-32.208000,989.664001,86,-44,46,6020.000000,-3080.000000,3220.000000,82,30.004883
A1,Thu 1970-01-01 01:00:00 CET,338.042,-2529,1311,-346,-354.059998,183.539993,-48.439999,-8,-45,1353,-5.856000,-32.939999,990.395996,90,-46,36,6300.000000,-3220.000000,2520.000000,81,29.943848
A1,Thu 1970-01-01 01:00:00 CET,339.042,-2514,1307,-318,-351.959991,182.979996,-44.520000,-8,-43,1351,-5.856000,-31.476000,988.932007,78,-51,43,5460.000000,-3570.000000,3010.000000,79,29.821777
A1,Thu 1970-01-01 01:00:00 CET,340.042,-2486,1345,-371,-348.040009,188.300003,-51.939999,-9,-49,1357,-6.588000,-35.868000,993.323975,89,-52,47,6230.000000,-3640.000000,3290.000000,81,29.943848
A1,Thu 1970-01-01 01:00:00 CET,341.042,-2480,1321,-328,-347.200012,184.940002,-45.920002,-12,-43,1349,-8.784000,-31.476000,987.468018,86,-46,40,6020.000000,-3220.000000,2800.000000,77,29.699707
A1,Thu 1970-01-01 01:00:00 CET,342.044,-2531,1307,-303,-354.339996,182.979996,-42.420002,-11,-45,1352,-8.052000,-32.939999,989.664001,88,-46,41,6160.000000,-3220.000000,2870.000000,80,29.882812
A1,Thu 1970-01-01 01:00:00 CET,343.045,-2512,1344,-363,-351.679993,188.160004,-50.820000,-4,-42,1350,-2.928000,-30.743999,988.200012,85,-49,45,5950.000000,-3430.000000,3150.000000,80,29.882812
A1,Thu 1970-01-01 01:00:00 CET,344.043,-2540,1339,-391,-355.600006,187.460007,-54.740002,-8,-41,1350,-5.856000,-30.011999,988.200012,85,-47,40,5950.000000,-3290.000000,2800.000000,81,29.943848
A1,Thu 1970-01-01 01:00:00 CET,345.04,-2516,1306,-441,-352.239990,182.839996,-61.740002,-12,-44,1351,-8.784000,-32.208000,988.932007,88,-49,45,6160.000000,-3430.000000,3150.000000,79,29.821777
A1,Thu 1970-01-01 01:00:00 CET,346.041,-2496,1349,-283,-349.440002,188.860001,-39.619999,-10,-34,1352,-7.320000,-24.888000,989.664001,88,-47,42,6160.000000,-3290.000000,2940.000000,81,29.943848
A1,Thu 1970-01-01 01:00:00 CET,347.041,-2479,1307,-283,-347.059998,182.979996,-39.619999,-5,-51,1351,-3.660000,-37.332001,988.932007,83,-49,44,5810.000000,-3430.000000,3080.000000,80,29.882812
A1,Thu 1970-01-01 01:00:00 CET,348.042,-2511,1350,-290,-351.540009,189.000000,-40.599998,-3,-38,1347,-2.196000,-27.816000,986.003967,97,-47,41,6790.000000,-3290.000000,2870.000000,83,30.065918
A1,Thu 1970-01-01 01:00:00 CET,349.042,-2507,1307,-266,-350.980011,182.979996,-37.240002,-16,-39,1352,-11.712000,-28.548000,989.664001,90,-45,46,6300.000000,-3150.000000,3220.000000,81,29.943848
A1,Thu 1970-01-01 01:00:00 CET,350.042,-2484,1337,-315,-347.760010,187.180008,-44.099998,0,-50,1348,0.000000,-36.599998,986.735962,87,-49,42,6090.000000,-3430.000000,2940.000000,84,30.126953
A1,Thu 1970-01-01 01:00:00 CET,351.042,-2493,1377,-273,-349.019989,192.779999,-38.220001,-12,-43,1350,-8.784000,-31.476000,988.200012,91,-51,41,6370.000000,-3570.000000,2870.000000,83,30.065918
A1,Thu 1970-01-01 01:00:00 CET,352.043,-2470,1332,-340,-345.799988,186.479996,-47.599998,-3,-45,1353,-2.196000,-32.939999,990.395996,80,-47,39,5600.000000,-3290.000000,2730.000000,81,29.943848
A1,Thu 1970-01-01 01:00:00 CET,353.043,-2480,1365,-308,-347.200012,191.100006,-43.119999,-14,-49,1348,-10.248000,-35.868000,986.735962,90,-48,44,6300.000000,-3360.000000,3080.000000,83,30.065918
A1,Thu 1970-01-01 01:00:00 CET,354.043,-2529,1343,-322,-354.059998,188.020004,-45.080002,-12,-42,1350,-8.784000,-30.743999,988.200012,87,-47,43,6090.000000,-3290.000000,3010.000000,83,30.065918
A1,Thu 1970-01-01 01:00:00 CET,355.043,-2478,1293,-378,-346.920013,181.020004,-52.920002,-7,-47,1355,-5.124000,-34.403999,991.859985,91,-50,39,6370.000000,-3500.000000,2730.000000,81,29.943848
A1,Thu 1970-01-01 01:00:00 CET,356.043,-2495,1293,-320,-349.299988,181.020004,-44.799999,-8,-41,1352,-5.856000,-30.011999,989.664001,87,-44,37,6090.000000,-3080.000000,2590.000000,82,30.004883
A1,Thu 1970-01-01 01:00:00 CET,357.043,-2479,1332,-279,-347.059998,186.479996,-39.060001,-9,-35,1354,-6.588000,-25.619999,991.127991,87,-45,41,6090.000000,-3150.000000,2870.000000,85,30.187988
A1,Thu 1970-01-01 01:00:00 CET,358.042,-2490,1327,-418,-348.600006,185.779999,-58.520000,-5,-44,1353,-3.660000,-32.208000,990.395996,86,-42,35,6020.000000,-2940.000000,2450.000000,82,30.004883
A1,Thu 1970-01-01 01:00:00 CET,359.041,-2548,1376,-382,-356.720001,192.639999,-53.480000,-10,-42,1349,-7.320000,-30.743999,987.468018,88,-50,42,6160.000000,-3500.000000,2940.000000,84,30.126953
A1,Thu 1970-01-01 01:00:00 CET,360.039,-2495,1320,-411,-349.299988,184.800003,-57.540001,-8,-43,1350,-5.856000,-31.476000,988.200012,87,-50,42,6090.000000,-3500.000000,2940.000000,84,30.126953
A1,Thu 1970-01-01 01:00:00 CET,361.045,-2569,1338,-234,-359.660004,187.320007,-32.759998,-11,-43,1353,-8.052000,-31.476000,990.395996,93,-54,43,6510.000000,-3780.000000,3010.000000,85,30.187988
A1,Thu 1970-01-01 01:00:00 CET,362.044,-2484,1340,-285,-347.760010,187.600006,-39.900002,-12,-47,1349,-8.784000,-34.403999,987.468018,83,-46,42,5810.000000,-3220.000000,2940.000000,83,30.065918
A1,Thu 1970-01-01 01:00:00 CET,363.044,-2485,1318,-264,-347.899994,184.520004,-36.959999,-19,-46,1350,-13.908000,-33.672001,988.200012,89,-46,41,6230.000000,-3220.000000,2870.000000,83,30.065918
A1,Thu 1970-01-01 01:00:00 CET,364.042,-2511,1325,-331,-351.540009,185.500000,-46.340000,-14,-44,1352,-10.248000,-32.208000,989.664001,91,-47,43,6370.000000,-3290.000000,3010.000000,83,30.065918
A1,Thu 1970-01-01 01:00:00 CET,365.043,-2440,1310,-343,-341.600006,183.399994,-48.020000,-3,-45,1350,-2.196000,-32.939999,988.200012,84,-45,42,5880.000000,-3150.000000,2940.000000,83,30.065918
A1,Thu 1970-01-01 01:00:00 CET,366.043,-2456,1277,-314,-343.839996,178.779999,-43.959999,-21,-34,1354,-15.372000,-24.888000,991.127991,88,-49,43,6160.000000,-3430.000000,3010.000000,82,30.004883
A1,Thu 1970-01-01 01:00:00 CET,367.044,-2478,1293,-297,-346.920013,181.020004,-41.580002,-14,-40,1351,-10.248000,-29.279999,988.932007,89,-46,41,6230.000000,-3220.000000,2870.000000,85,30.187988
A1,Thu 1970-01-01 01:00:00 CET,368.043,-2469,1296,-294,-345.660004,181.440002,-41.160000,-2,-40,1353,-1.464000,-29.279999,990.395996,87,-45,39,6090.000000,-3150.000000,2730.000000,86,30.249023
A1,Thu 1970-01-01 01:00:00 CET,369.043,-2492,1286,-309,-348.880005,180.039993,-43.259998,-21,-45,1350,-15.372000,-32.939999,988.200012,87,-44,43,6090.000000,-3080.000000,3010.000000,83,30.065918
A1,Thu 1970-01-01 01:00:00 CET,370.043,-2494,1318,-276,-349.160004,184.520004,-38.639999,-10,-49,1355,-7.320000,-35.868000,991.859985,82,-52,46,5740.000000,-3640.000000,3220.000000,85,30.187988
A1,Thu 1970-01-01 01:00:00 CET,371.04,-2449,1352,-298,-342.860016,189.279999,-41.720001,-11,-38,1351,-8.052000,-27.816000,988.932007,94,-48,38,6580.000000,-3360.000000,2660.000000,84,30.126953
A1,Thu 1970-01-01 01:00:00 CET,372.04,-2449,1368,-244,-342.860016,191.520004,-34.160000,-11,-51,1347,-8.052000,-37.332001,986.003967,87,-52,44,6090.000000,-3640.000000,3080.000000,85,30.187988
A1,Thu 1970-01-01 01:00:00 CET,373.042,-2503,1306,-247,-350.420013,182.839996,-34.580002,-5,-42,1348,-3.660000,-30.743999,986.735962,82,-45,40,5740.000000,-3150.000000,2800.000000,85,30.187988
A1,Thu 1970-01-01 01:00:00 CET,374.042,-2482,1348,-211,-347.480011,188.720001,-29.540001,-9,-36,1360,-6.588000,-26.351999,995.520020,89,-43,42,6230.000000,-3010.000000,2940.000000,88,30.371094
A1,Thu 1970-01-01 01:00:00 CET,375.043,-2535,1368,-251,-354.899994,191.520004,-35.139999,-5,-41,1352,-3.660000,-30.011999,989.664001,85,-47,42,5950.000000,-3290.000000,2940.000000,83,30.065918
A1,Thu 1970-01-01 01:00:00 CET,376.042,-2496,1335,-247,-349.440002,186.899994,-34.580002,-20,-40,1357,-14.639999,-29.279999,993.323975,91,-46,44,6370.000000,-3220.000000,3080.000000,86,30.249023
A1,Thu 1970-01-01 01:00:00 CET,377.043,-2501,1321,-239,-350.140015,184.940002,-33.459999,-2,-44,1348,-1.464000,-32.208000,986.735962,93,-49,43,6510.000000,-3430.000000,3010.000000,85,30.187988
A1,Thu 1970-01-01 01:00:00 CET,378.043,-2509,1359,-346,-351.260010,190.259995,-48.439999,-17,-47,1349,-12.444000,-34.403999,987.468018,91,-45,42,6370.000000,-3150.000000,2940.000000,85,30.187988
A1,Thu 1970-01-01 01:00:00 CET,379.043,-2509,1281,-268,-351.260010,179.339996,-37.520000,-16,-48,1352,-11.712000,-35.136002,989.664001,91,-51,41,6370.000000,-3570.000000,2870.000000,85,30.187988
A1,Thu 1970-01-01 01:00:00 CET,380.042,-2491,1335,-283,-348.739990,186.899994,-39.619999,1,-46,1347,0.732000,-33.672001,986.003967,90,-46,43,6300.000000,-3220.000000,3010.000000,86,30.249023
A1,Thu 1970-01-01 01:00:00 CET,381.043,-2436,1302,-306,-341.040009,182.279999,-42.840000,-13,-44,1352,-9.516000,-32.208000,989.664001,89,-46,36,6230.000000,-3220.000000,2520.000000,88,30.371094
A1,Thu 1970-01-01 01:00:00 CET,382.043,-2442,1309,-305,-341.880005,183.259995,-42.700001,-12,-40,1353,-8.784000,-29.279999,990.395996,92,-55,42,6440.000000,-3850.000000,2940.000000,85,30.187988
A1,Thu 1970-01-01 01:00:00 CET,383.043,-2480,1319,-207,-347.200012,184.660004,-28.980000,-8,-42,1353,-5.856000,-30.743999,990.395996,84,-47,42,5880.000000,-3290.000000,2940.000000,89,30.432129
A1,Thu 1970-01-01 01:00:00 CET,384.042,-2469,1328,-316,-345.660004,185.919998,-44.240002,-15,-45,1348,-10.980000,-32.939999,986.735962,92,-50,41,6440.000000,-3500.000000,2870.000000,88,30.371094
A1,Thu 1970-01-01 01:00:00 CET,385.042,-2475,1342,-276,-346.500000,187.880005,-38.639999,-13,-45,1349,-9.516000,-32.939999,987.468018,90,-47,37,6300.000000,-3290.000000,2590.000000,87,30.310059
A1,Thu 1970-01-01 01:00:00 CET,386.043,-2524,1331,-279,-353.360016,186.339996,-39.060001,-3,-53,1351,-2.196000,-38.796001,988.932007,91,-49,40,6370.000000,-3430.000000,2800.000000,87,30.310059
A1,Thu 1970-01-01 01:00:00 CET,387.044,-2499,1345,-306,-349.860016,188.300003,-42.840000,-15,-44,1369,-10.980000,-32.208000,1002.107971,93,-48,40,6510.000000,-3360.000000,2800.000000,88,30.371094
A1,Thu 1970-01-01 01:00:00 CET,388.045,-2547,1337,-237,-356.579987,187.180008,-33.180000,-7,-43,1355,-5.124000,-31.476000,991.859985,90,-47,42,6300.000000,-3290.000000,2940.000000,89,30.432129
A1,Thu 1970-01-01 01:00:00 CET,389.042,-2468,1297,-313,-345.519989,181.580002,-43.820000,-22,-45,1348,-16.104000,-32.939999,986.735962,92,-50,40,6440.000000,-3500.000000,2800.000000,88,30.371094
A1,Thu 1970-01-01 01:00:00 CET,390.042,-2470,1315,-334,-345.799988,184.100006,-46.759998,-13,-54,1341,-9.516000,-39.528000,981.612000,85,-49,45,5950.000000,-3430.000000,3150.000000,89,30.432129
A1,Thu 1970-01-01 01:00:00 CET,391.042,-2513,1319,-239,-351.820007,184.660004,-33.459999,-11,-45,1346,-8.052000,-32.939999,985.271973,90,-52,41,6300.000000,-3640.000000,2870.000000,86,30.249023
A1,Thu 1970-01-01 01:00:00 CET,392.042,-2528,1349,-274,-353.920013,188.860001,-38.360001,-19,-43,1348,-13.908000,-31.476000,986.735962,88,-52,42,6160.000000,-3640.000000,2940.000000,86,30.249023
A1,Thu 1970-01-01 01:00:00 CET,393.042,-2499,1329,-292,-349.860016,186.059998,-40.880001,-1,-44,1350,-0.732000,-32.208000,988.200012,91,-49,42,6370.000000,-3430.000000,2940.000000,89,30.432129
A1,Thu 1970-01-01 01:00:00 CET,394.043,-2488,1328,-332,-348.320007,185.919998,-46.480000,-20,-45,1352,-14.639999,-32.939999,989.664001,91,-47,40,6370.000000,-3290.000000,2800.000000,88,30.371094
A1,Thu 1970-01-01 01:00:00 CET,395.043,-2509,1313,-310,-351.260010,183.820007,-43.400002,0,-45,1350,0.000000,-32.939999,988.200012,92,-47,42,6440.000000,-3290.000000,2940.000000,88,30.371094
A1,Thu 1970-01-01 01:00:00 CET,396.042,-2509,1338,-279,-351.260010,187.320007,-39.060001,-21,-39,1350,-15.372000,-28.548000,988.200012,91,-47,44,6370.000000,-3290.000000,3080.000000,89,30.432129
A1,Thu 1970-01-01 01:00:00 CET,397.044,-2480,1298,-441,-347.200012,181.720001,-61.740002,-17,-43,1350,-12.444000,-31.476000,988.200012,84,-50,43,5880.000000,-3500.000000,3010.000000,90,30.493164
A1,Thu 1970-01-01 01:00:00 CET,398.042,-2523,1327,-330,-353.220001,185.779999,-46.200001,-13,-44,1350,-9.516000,-32.208000,988.200012,91,-48,41,6370.000000,-3360.000000,2870.000000,88,30.371094
A1,Thu 1970-01-01 01:00:00 CET,399.042,-2496,1339,-301,-349.440002,187.460007,-42.139999,-10,-43,1355,-7.320000,-31.476000,991.859985,88,-51,41,6160.000000,-3570.000000,2870.000000,87,30.310059
A1,Thu 1970-01-01 01:00:00 CET,400.042,-2523,1372,-302,-353.220001,192.080002,-42.279999,-8,-43,1348,-5.856000,-31.476000,986.735962,96,-55,38,6720.000000,-3850.000000,2660.000000,89,30.432129
A1,Thu 1970-01-01 01:00:00 CET,401.042,-2515,1357,-275,-352.100006,189.979996,-38.500000,-12,-49,1350,-8.784000,-35.868000,988.200012,94,-49,41,6580.000000,-3430.000000,2870.000000,91,30.554199
A1,Thu 1970-01-01 01:00:00 CET,402.042,-2525,1341,-265,-353.500000,187.740005,-37.099998,-9,-40,1354,-6.588000,-29.279999,991.127991,89,-48,41,6230.000000,-3360.000000,2870.000000,89,30.432129
A1,Thu 1970-01-01 01:00:00 CET,403.042,-2521,1323,-294,-352.940002,185.220001,-41.160000,-15,-45,1349,-10.980000,-32.939999,987.468018,87,-49,43,6090.000000,-3430.000000,3010.000000,93,30.676270
A1,Thu 1970-01-01 01:00:00 CET,404.044,-2513,1309,-376,-351.820007,183.259995,-52.639999,-10,-47,1352,-7.320000,-34.403999,989.664001,92,-49,38,6440.000000,-3430.000000,2660.000000,89,30.432129
A1,Thu 1970-01-01 01:00:00 CET,405.044,-2536,1327,-462,-355.040009,185.779999,-64.680000,-12,-43,1353,-8.784000,-31.476000,990.395996,94,-49,42,6580.000000,-3430.000000,2940.000000,91,30.554199
A1,Thu 1970-01-01 01:00:00 CET,406.045,-2497,1353,-358,-349.579987,189.419998,-50.119999,-7,-45,1352,-5.124000,-32.939999,989.664001,92,-47,44,6440.000000,-3290.000000,3080.000000,92,30.615234
A1,Thu 1970-01-01 01:00:00 CET,407.043,-2530,1363,-320,-354.200012,190.820007,-44.799999,-14,-43,1349,-10.248000,-31.476000,987.468018,85,-50,39,5950.000000,-3500.000000,2730.000000,91,30.554199
A1,Thu 1970-01-01 01:00:00 CET,408.043,-2521,1289,-339,-352.940002,180.460007,-47.459999,-10,-46,1352,-7.320000,-33.672001,989.664001,92,-47,42,6440.000000,-3290.000000,2940.000000,88,30.371094
A1,Thu 1970-01-01 01:00:00 CET,409.043,-2543,1309,-332,-356.019989,183.259995,-46.480000,-14,-45,1347,-10.248000,-32.939999,986.003967,91,-50,40,6370.000000,-3500.000000,2800.000000,89,30.432129
A1,Thu 1970-01-01 01:00:00 CET,410.043,-2507,1293,-318,-350.980011,181.020004,-44.520000,-12,-45,1349,-8.784000,-32.939999,987.468018,98,-52,42,6860.000000,-3640.000000,2940.000000,89,30.432129
A1,Thu 1970-01-01 01:00:00 CET,411.043,-2492,1255,-265,-348.880005,175.699997,-37.099998,-11,-44,1354,-8.052000,-32.208000,991.127991,90,-51,44,6300.000000,-3570.000000,3080.000000,88,30.371094
A1,Thu 1970-01-01 01:00:00 CET,412.043,-2494,1289,-323,-349.160004,180.460007,-45.220001,-11,-42,1349,-8.052000,-30.743999,987.468018,84,-49,43,5880.000000,-3430.000000,3010.000000,89,30.432129
A1,Thu 1970-01-01 01:00:00 CET,413.044,-2480,1286,-377,-347.200012,180.039993,-52.779999,-13,-44,1351,-9.516000,-32.208000,988.932007,91,-49,42,6370.000000,-3430.000000,2940.000000,91,30.554199
A1,Thu 1970-01-01 01:00:00 CET,414.044,-2501,1342,-291,-350.140015,187.880005,-40.740002,-7,-47,1355,-5.124000,-34.403999,991.859985,97,-50,40,6790.000000,-3500.000000,2800.000000,92,30.615234
A1,Thu 1970-01-01 01:00:00 CET,415.045,-2509,1364,-309,-351.260010,190.960007,-43.259998,-13,-48,1350,-9.516000,-35.136002,988.200012,92,-52,46,6440.000000,-3640.000000,3220.000000,91,30.554199
A1,Thu 1970-01-01 01:00:00 CET,416.044,-2548,1353,-241,-356.720001,189.419998,-33.740002,-12,-46,1351,-8.784000,-33.672001,988.932007,83,-48,38,5810.000000,-3360.000000,2660.000000,90,30.493164
A1,Thu 1970-01-01 01:00:00 CET,417.043,-2461,1365,-362,-344.540009,191.100006,-50.680000,-13,-41,1347,-9.516000,-30.011999,986.003967,94,-46,44,6580.000000,-3220.000000,3080.000000,93,30.676270
A1,Thu 1970-01-01 01:00:00 CET,418.043,-2499,1337,-227,-349.860016,187.180008,-31.780001,-12,-48,1353,-8.784000,-35.136002,990.395996,84,-50,42,5880.000000,-3500.000000,2940.000000,90,30.493164
A1,Thu 1970-01-01 01:00:00 CET,419.042,-2469,1338,-290,-345.660004,187.320007,-40.599998,-11,-45,1347,-8.052000,-32.939999,986.003967,94,-51,40,6580.000000,-3570.000000,2800.000000,92,30.615234
A1,Thu 1970-01-01 01:00:00 CET,420.042,-2458,1313,-357,-344.119995,183.820007,-49.980000,-13,-48,1350,-9.516000,-35.136002,988.200012,90,-48,43,6300.000000,-3360.000000,3010.000000,95,30.798340
A1,Thu 1970-01-01 01:00:00 CET,421.043,-2494,1362,-393,-349.160004,190.680008,-55.020000,-10,-47,1348,-7.320000,-34.403999,986.735962,95,-49,38,6650.000000,-3430.000000,2660.000000,92,30.615234
A1,Thu 1970-01-01 01:00:00 CET,422.043,-2479,1363,-338,-347.059998,190.820007,-47.320000,-9,-44,1354,-6.588000,-32.208000,991.127991,95,-47,42,6650.000000,-3290.000000,2940.000000,93,30.676270
A1,Thu 1970-01-01 01:00:00 CET,423.043,-2466,1262,-347,-345.239990,176.680008,-48.580002,-11,-45,1351,-8.052000,-32.939999,988.932007,95,-48,41,6650.000000,-3360.000000,2870.000000,92,30.615234
A1,Thu 1970-01-01 01:00:00 CET,424.043,-2457,1311,-374,-343.980011,183.539993,-52.360001,-8,-47,1351,-5.856000,-34.403999,988.932007,92,-54,41,6440.000000,-3780.000000,2870.000000,92,30.615234
A1,Thu 1970-01-01 01:00:00 CET,425.044,-2505,1348,-385,-350.700012,188.720001,-53.900002,-15,-46,1352,-10.980000,-33.672001,989.664001,93,-52,43,6510.000000,-3640.000000,3010.000000,93,30.676270
A1,Thu 1970-01-01 01:00:00 CET,426.044,-2502,1311,-322,-350.279999,183.539993,-45.080002,-9,-37,1353,-6.588000,-27.084000,990.395996,91,-47,39,6370.000000,-3290.000000,2730.000000,95,30.798340
A1,Thu 1970-01-01 01:00:00 CET,427.044,-2473,1361,-296,-346.220001,190.539993,-41.439999,-12,-48,1350,-8.784000,-35.136002,988.200012,94,-43,40,6580.000000,-3010.000000,2800.000000,92,30.615234
A1,Thu 1970-01-01 01:00:00 CET,428.044,-2465,1347,-382,-345.100006,188.580002,-53.480000,-13,-45,1352,-9.516000,-32.939999,989.664001,86,-49,42,6020.000000,-3430.000000,2940.000000,94,30.737305
A1,Thu 1970-01-01 01:00:00 CET,429.043,-2545,1342,-375,-356.299988,187.880005,-52.500000,-11,-45,1352,-8.052000,-32.939999,989.664001,88,-49,44,6160.000000,-3430.000000,3080.000000,95,30.798340
A1,Thu 1970-01-01 01:00:00 CET,430.042,-2501,1343,-205,-350.140015,188.020004,-28.700001,-8,-41,1348,-5.856000,-30.011999,986.735962,92,-49,38,6440.000000,-3430.000000,2660.000000,93,30.676270
A1,Thu 1970-01-01 01:00:00 CET,431.042,-2499,1356,-197,-349.860016,189.839996,-27.580000,-10,-47,1351,-7.320000,-34.403999,988.932007,94,-48,40,6580.000000,-3360.000000,2800.000000,97,30.920410
A1,Thu 1970-01-01 01:00:00 CET,432.044,-2515,1337,-356,-352.100006,187.180008,-49.840000,-9,-45,1350,-6.588000,-32.939999,988.200012,93,-47,42,6510.000000,-3290.000000,2940.000000,93,30.676270
A1,Thu 1970-01-01 01:00:00 CET,433.045,-2520,1301,-384,-352.799988,182.139999,-53.760002,-10,-44,1347,-7.320000,-32.208000,986.003967,89,-49,41,6230.000000,-3430.000000,2870.000000,93,30.676270
A1,Thu 1970-01-01 01:00:00 CET,434.044,-2516,1364,-309,-352.239990,190.960007,-43.259998,-9,-50,1348,-6.588000,-36.599998,986.735962,92,-51,45,6440.000000,-3570.000000,3150.000000,96,30.859375
A1,Thu 1970-01-01 01:00:00 CET,435.042,-2501,1410,-277,-350.140015,197.399994,-38.779999,-16,-47,1350,-11.712000,-34.403999,988.200012,92,-49,43,6440.000000,-3430.000000,3010.000000,96,30.859375
A1,Thu 1970-01-01 01:00:00 CET,436.043,-2517,1346,-268,-352.380005,188.440002,-37.520000,-11,-44,1349,-8.052000,-32.208000,987.468018,92,-47,39,6440.000000,-3290.000000,2730.000000,98,30.981445
A1,Thu 1970-01-01 01:00:00 CET,437.043,-2498,1332,-188,-349.720001,186.479996,-26.320000,-9,-45,1349,-6.588000,-32.939999,987.468018,91,-49,39,6370.000000,-3430.000000,2730.000000,97,30.920410
A1,Thu 1970-01-01 01:00:00 CET,438.043,-2506,1370,-207,-350.839996,191.800003,-28.980000,-14,-44,1349,-10.248000,-32.208000,987.468018,89,-50,44,6230.000000,-3500.000000,3080.000000,94,30.737305
A1,Thu 1970-01-01 01:00:00 CET,439.043,-2483,1296,-238,-347.619995,181.440002,-33.320000,-12,-45,1351,-8.784000,-32.939999,988.932007,86,-47,41,6020.000000,-3290.000000,2870.000000,96,30.859375
A1,Thu 1970-01-01 01:00:00 CET,440.043,-2514,1330,-184,-351.959991,186.199997,-25.760000,-7,-45,1356,-5.124000,-32.939999,992.591980,94,-51,41,6580.000000,-3570.000000,2870.000000,96,30.859375
A1,Thu 1970-01-01 01:00:00 CET,441.043,-2508,1297,-221,-351.119995,181.580002,-30.940001,-10,-47,1349,-7.320000,-34.403999,987.468018,90,-56,43,6300.000000,-3920.000000,3010.000000,94,30.737305
A1,Thu 1970-01-01 01:00:00 CET,442.045,-2496,1348,-121,-349.440002,188.720001,-16.940001,-13,-45,1352,-9.516000,-32.939999,989.664001,92,-51,38,6440.000000,-3570.000000,2660.000000,94,30.737305
A1,Thu 1970-01-01 01:00:00 CET,443.044,-2481,1342,-196,-347.339996,187.880005,-27.440001,-7,-45,1354,-5.124000,-32.939999,991.127991,85,-50,41,5950.000000,-3500.000000,2870.000000,98,30.981445
A1,Thu 1970-01-01 01:00:00 CET,444.044,-2465,1382,-221,-345.100006,193.479996,-30.940001,-10,-46,1351,-7.320000,-33.672001,988.932007,94,-53,38,6580.000000,-3710.000000,2660.000000,97,30.920410
A1,Thu 1970-01-01 01:00:00 CET,445.043,-2497,1359,-297,-349.579987,190.259995,-41.580002,-12,-42,1350,-8.784000,-30.743999,988.200012,95,-50,42,6650.000000,-3500.000000,2940.000000,96,30.859375
A1,Thu 1970-01-01 01:00:00 CET,446.044,-2517,1344,-293,-352.380005,188.160004,-41.020000,-8,-43,1345,-5.856000,-31.476000,984.539978,88,-48,40,6160.000000,-3360.000000,2800.000000,97,30.920410
A1,Thu 1970-01-01 01:00:00 CET,447.044,-2546,1340,-177,-356.440002,187.600006,-24.780001,-14,-51,1351,-10.248000,-37.332001,988.932007,92,-52,41,6440.000000,-3640.000000,2870.000000,96,30.859375
A1,Thu 1970-01-01 01:00:00 CET,448.042,-2527,1310,-259,-353.779999,183.399994,-36.259998,-8,-42,1349,-5.856000,-30.743999,987.468018,91,-48,42,6370.000000,-3360.000000,2940.000000,95,30.798340
A1,Thu 1970-01-01 01:00:00 CET,449.043,-2520,1295,-376,-352.799988,181.300003,-52.639999,-15,-43,1354,-10.980000,-31.476000,991.127991,89,-52,43,6230.000000,-3640.000000,3010.000000,94,30.737305
A1,Thu 1970-01-01 01:00:00 CET,450.043,-2534,1349,-242,-354.760010,188.860001,-33.880001,-8,-46,1354,-5.856000,-33.672001,991.127991,93,-47,41,6510.000000,-3290.000000,2870.000000,95,30.798340
A1,Thu 1970-01-01 01:00:00 CET,451.043,-2539,1335,-282,-355.459991,186.899994,-39.480000,-5,-42,1349,-3.660000,-30.743999,987.468018,94,-45,38,6580.000000,-3150.000000,2660.000000,98,30.981445
A1,Thu 1970-01-01 01:00:00 CET,452.044,-2526,1317,-213,-353.640015,184.380005,-29.820000,-11,-42,1353,-8.052000,-30.743999,990.395996,94,-49,43,6580.000000,-3430.000000,3010.000000,97,30.920410
A1,Thu 1970-01-01 01:00:00 CET,453.043,-2563,1300,-179,-358.820007,182.000000,-25.059999,-8,-45,1346,-5.856000,-32.939999,985.271973,99,-50,45,6930.000000,-3500.000000,3150.000000,97,30.920410
A1,Thu 1970-01-01 01:00:00 CET,454.044,-2507,1364,-194,-350.980011,190.960007,-27.160000,-11,-43,1350,-8.052000,-31.476000,988.200012,92,-49,43,6440.000000,-3430.000000,3010.000000,101,31.164551
A1,Thu 1970-01-01 01:00:00 CET,455.043,-2502,1321,-181,-350.279999,184.940002,-25.340000,-13,-45,1350,-9.516000,-32.939999,988.200012,97,-50,40,6790.000000,-3500.000000,2800.000000,99,31.042480
A1,Thu 1970-01-01 01:00:00 CET,456.044,-2531,1320,-285,-354.339996,184.800003,-39.900002,-12,-41,1352,-8.784000,-30.011999,989.664001,92,-47,44,6440.000000,-3290.000000,3080.000000,98,30.981445
A1,Thu 1970-01-01 01:00:00 CET,457.044,-2521,1329,-231,-352.940002,186.059998,-32.340000,-10,-45,1350,-7.320000,-32.939999,988.200012,89,-49,38,6230.000000,-3430.000000,2660.000000,96,30.859375
A1,Thu 1970-01-01 01:00:00 CET,458.042,-2520,1358,-238,-352.799988,190.119995,-33.320000,-14,-49,1354,-10.248000,-35.868000,991.127991,98,-51,42,6860.000000,-3570.000000,2940.000000,96,30.859375
A1,Thu 1970-01-01 01:00:00 CET,459.042,-2518,1317,-220,-352.519989,184.380005,-30.799999,-12,-44,1348,-8.784000,-32.208000,986.735962,95,-54,39,6650.000000,-3780.000000,2730.000000,96,30.859375
A1,Thu 1970-01-01 01:00:00 CET,460.043,-2534,1351,-188,-354.760010,189.139999,-26.320000,-12,-43,1353,-8.784000,-31.476000,990.395996,99,-49,39,6930.000000,-3430.000000,2730.000000,97,30.920410
A1,Thu 1970-01-01 01:00:00 CET,461.041,-2529,1367,-208,-354.059998,191.380005,-29.120001,-11,-50,1354,-8.052000,-36.599998,991.127991,97,-54,42,6790.000000,-3780.000000,2940.000000,97,30.920410
A1,Thu 1970-01-01 01:00:00 CET,462.042,-2523,1338,-181,-353.220001,187.320007,-25.340000,-11,-42,1349,-8.052000,-30.743999,987.468018,94,-48,41,6580.000000,-3360.000000,2870.000000,99,31.042480
A1,Thu 1970-01-01 01:00:00 CET,463.043,-2529,1349,-223,-354.059998,188.860001,-31.219999,-9,-46,1349,-6.588000,-33.672001,987.468018,91,-48,41,6370.000000,-3360.000000,2870.000000,100,31.103516
A1,Thu 1970-01-01 01:00:00 CET,464.043,-2558,1353,-176,-358.119995,189.419998,-24.639999,-12,-47,1349,-8.784000,-34.403999,987.468018,95,-48,42,6650.000000,-3360.000000,2940.000000,98,30.981445
A1,Thu 1970-01-01 01:00:00 CET,465.044,-2537,1343,-274,-355.179993,188.020004,-38.360001,-11,-50,1349,-8.052000,-36.599998,987.468018,96,-51,41,6720.000000,-3570.000000,2870.000000,97,30.920410
A1,Thu 1970-01-01 01:00:00 CET,466.043,-2546,1371,-239,-356.440002,191.940002,-33.459999,-11,-44,1348,-8.052000,-32.208000,986.735962,90,-50,39,6300.000000,-3500.000000,2730.000000,100,31.103516
A1,Thu 1970-01-01 01:00:00 CET,467.039,-2515,1349,-249,-352.100006,188.860001,-34.860001,-6,-43,1352,-4.392000,-31.476000,989.664001,87,-47,42,6090.000000,-3290.000000,2940.000000,98,30.981445
A1,Thu 1970-01-01 01:00:00 CET,468.043,-2552,1348,-201,-357.279999,188.720001,-28.139999,-6,-46,1350,-4.392000,-33.672001,988.200012,90,-50,42,6300.000000,-3500.000000,2940.000000,100,31.103516
A1,Thu 1970-01-01 01:00:00 CET,469.044,-2499,1363,-172,-349.860016,190.820007,-24.080000,-11,-43,1351,-8.052000,-31.476000,988.932007,91,-47,39,6370.000000,-3290.000000,2730.000000,101,31.164551
A1,Thu 1970-01-01 01:00:00 CET,470.042,-2544,1324,-217,-356.160004,185.360001,-30.380001,-10,-44,1350,-7.320000,-32.208000,988.200012,96,-53,44,6720.000000,-3710.000000,3080.000000,100,31.103516
A1,Thu 1970-01-01 01:00:00 CET,471.043,-2497,1376,-146,-349.579987,192.639999,-20.440001,-8,-42,1352,-5.856000,-30.743999,989.664001,93,-51,41,6510.000000,-3570.000000,2870.000000,100,31.103516
A1,Thu 1970-01-01 01:00:00 CET,472.043,-2548,1392,-235,-356.720001,194.880005,-32.900002,-9,-44,1352,-6.588000,-32.208000,989.664001,91,-50,41,6370.000000,-3500.000000,2870.000000,102,31.225586
A1,Thu 1970-01-01 01:00:00 CET,473.042,-2536,1360,-204,-355.040009,190.399994,-28.559999,-11,-46,1349,-8.052000,-33.672001,987.468018,92,-51,43,6440.000000,-3570.000000,3010.000000,100,31.103516
A1,Thu 1970-01-01 01:00:00 CET,474.04,-2526,1365,-204,-353.640015,191.100006,-28.559999,-9,-49,1347,-6.588000,-35.868000,986.003967,90,-47,41,6300.000000,-3290.000000,2870.000000,101,31.164551
A1,Thu 1970-01-01 01:00:00 CET,475.041,-2510,1348,-218,-351.399994,188.720001,-30.520000,-12,-45,1344,-8.784000,-32.939999,983.807983,93,-49,41,6510.000000,-3430.000000,2870.000000,101,31.164551
A1,Thu 1970-01-01 01:00:00 CET,476.043,-2534,1365,-198,-354.760010,191.100006,-27.719999,-13,-47,1352,-9.516000,-34.403999,989.664001,95,-51,43,6650.000000,-3570.000000,3010.000000,101,31.164551
A1,Thu 1970-01-01 01:00:00 CET,477.044,-2507,1388,-200,-350.980011,194.320007,-28.000000,-11,-46,1348,-8.052000,-33.672001,986.735962,91,-53,42,6370.000000,-3710.000000,2940.000000,101,31.164551
A1,Thu 1970-01-01 01:00:00 CET,478.045,-2502,1373,-241,-350.279999,192.220001,-33.740002,-13,-42,1350,-9.516000,-30.743999,988.200012,94,-46,40,6580.000000,-3220.000000,2800.000000,101,31.164551
A1,Thu 1970-01-01 01:00:00 CET,479.043,-2503,1370,-230,-350.420013,191.800003,-32.200001,-6,-44,1352,-4.392000,-32.208000,989.664001,96,-51,41,6720.000000,-3570.000000,2870.000000,103,31.286621
A1,Thu 1970-01-01 01:00:00 CET,480.044,-2509,1348,-144,-351.260010,188.720001,-20.160000,-9,-44,1350,-6.588000,-32.208000,988.200012,94,-51,44,6580.000000,-3570.000000,3080.000000,101,31.164551
A1,Thu 1970-01-01 01:00:00 CET,481.044,-2506,1338,-198,-350.839996,187.320007,-27.719999,-10,-43,1348,-7.320000,-31.476000,986.735962,92,-53,40,6440.000000,-3710.000000,2800.000000,102,31.225586
A1,Thu 1970-01-01 01:00:00 CET,482.044,-2489,1323,-176,-348.459991,185.220001,-24.639999,-8,-47,1351,-5.856000,-34.403999,988.932007,93,-49,43,6510.000000,-3430.000000,3010.000000,102,31.225586
A1,Thu 1970-01-01 01:00:00 CET,483.043,-2518,1355,-291,-352.519989,189.699997,-40.740002,-9,-41,1350,-6.588000,-30.011999,988.200012,101,-50,43,7070.000000,-3500.000000,3010.000000,101,31.164551
A1,Thu 1970-01-01 01:00:00 CET,484.043,-2515,1317,-219,-352.100006,184.380005,-30.660000,-13,-49,1352,-9.516000,-35.868000,989.664001,91,-50,42,6370.000000,-3500.000000,2940.000000,103,31.286621
A1,Thu 1970-01-01 01:00:00 CET,485.043,-2505,1392,-295,-350.700012,194.880005,-41.299999,-13,-47,1352,-9.516000,-34.403999,989.664001,92,-49,42,6440.000000,-3430.000000,2940.000000,102,31.225586
A1,Thu 1970-01-01 01:00:00 CET,486.042,-2573,1332,-266,-360.220001,186.479996,-37.240002,-13,-48,1352,-9.516000,-35.136002,989.664001,91,-55,39,6370.000000,-3850.000000,2730.000000,101,31.164551
A1,Thu 1970-01-01 01:00:00 CET,487.043,-2544,1327,-237,-356.160004,185.779999,-33.180000,-9,-44,1352,-6.588000,-32.208000,989.664001,90,-52,39,6300.000000,-3640.000000,2730.000000,101,31.164551
A1,Thu 1970-01-01 01:00:00 CET,488.04,-2575,1365,-216,-360.500000,191.100006,-30.240000,-13,-46,1351,-9.516000,-33.672001,988.932007,90,-48,42,6300.000000,-3360.000000,2940.000000,104,31.347656
A1,Thu 1970-01-01 01:00:00 CET,489.042,-2505,1336,-230,-350.700012,187.039993,-32.200001,-14,-46,1351,-10.248000,-33.672001,988.932007,92,-53,40,6440.000000,-3710.000000,2800.000000,104,31.347656
A1,Thu 1970-01-01 01:00:00 CET,490.042,-2565,1353,-271,-359.100006,189.419998,-37.939999,-9,-43,1349,-6.588000,-31.476000,987.468018,94,-51,40,6580.000000,-3570.000000,2800.000000,104,31.347656
A1,Thu 1970-01-01 01:00:00 CET,491.038,-2525,1321,-429,-353.500000,184.940002,-60.060001,-8,-46,1353,-5.856000,-33.672001,990.395996,92,-49,40,6440.000000,-3430.000000,2800.000000,102,31.225586
A1,Thu 1970-01-01 01:00:00 CET,492.042,-2534,1342,-193,-354.760010,187.880005,-27.020000,-10,-48,1351,-7.320000,-35.136002,988.932007,91,-51,41,6370.000000,-3570.000000,2870.000000,105,31.408691
A1,Thu 1970-01-01 01:00:00 CET,493.043,-2510,1394,-218,-351.399994,195.160004,-30.520000,-12,-46,1351,-8.784000,-33.672001,988.932007,96,-49,42,6720.000000,-3430.000000,2940.000000,104,31.347656
A1,Thu 1970-01-01 01:00:00 CET,494.043,-2510,1358,-221,-351.399994,190.119995,-30.940001,-12,-50,1349,-8.784000,-36.599998,987.468018,93,-48,39,6510.000000,-3360.000000,2730.000000,104,31.347656
A1,Thu 1970-01-01 01:00:00 CET,495.043,-2517,1329,-263,-352.380005,186.059998,-36.820000,-14,-47,1354,-10.248000,-34.403999,991.127991,92,-51,41,6440.000000,-3570.000000,2870.000000,104,31.347656
A1,Thu 1970-01-01 01:00:00 CET,496.046,-2560,1357,-301,-358.399994,189.979996,-42.139999,-13,-40,1347,-9.516000,-29.279999,986.003967,93,-49,47,6510.000000,-3430.000000,3290.000000,103,31.286621
A1,Thu 1970-01-01 01:00:00 CET,497.044,-2502,1298,-230,-350.279999,181.720001,-32.200001,-14,-43,1346,-10.248000,-31.476000,985.271973,94,-50,44,6580.000000,-3500.000000,3080.000000,104,31.347656
A1,Thu 1970-01-01 01:00:00 CET,498.044,-2535,1381,-172,-354.899994,193.339996,-24.080000,-10,-41,1347,-7.320000,-30.011999,986.003967,97,-50,42,6790.000000,-3500.000000,2940.000000,106,31.469727
A1,Thu 1970-01-01 01:00:00 CET,499.043,-2530,1307,-303,-354.200012,182.979996,-42.420002,-10,-42,1351,-7.320000,-30.743999,988.932007,96,-48,40,6720.000000,-3360.000000,2800.000000,104,31.347656
A1,Thu 1970-01-01 01:00:00 CET,500.042,-2546,1367,-159,-356.440002,191.380005,-22.260000,-10,-47,1349,-7.320000,-34.403999,987.468018,92,-48,40,6440.000000,-3360.000000,2800.000000,104,31.347656
A1,Thu 1970-01-01 01:00:00 CET,501.042,-2541,1413,-172,-355.739990,197.820007,-24.080000,-11,-40,1350,-8.052000,-29.279999,988.200012,91,-52,42,6370.000000,-3640.000000,2940.000000,106,31.469727
A1,Thu 1970-01-01 01:00:00 CET,502.043,-2503,1377,-178,-350.420013,192.779999,-24.920000,-9,-41,1352,-6.588000,-30.011999,989.664001,92,-48,43,6440.000000,-3360.000000,3010.000000,105,31.408691
A1,Thu 1970-01-01 01:00:00 CET,503.044,-2506,1416,-161,-350.839996,198.240005,-22.540001,-13,-48,1355,-9.516000,-35.136002,991.859985,95,-54,41,6650.000000,-3780.000000,2870.000000,104,31.347656
A1,Thu 1970-01-01 01:00:00 CET,504.043,-2528,1316,-188,-353.920013,184.240005,-26.320000,-15,-46,1352,-10.980000,-33.672001,989.664001,93,-52,41,6510.000000,-3640.000000,2870.000000,108,31.591797
A1,Thu 1970-01-01 01:00:00 CET,505.044,-2525,1347,-248,-353.500000,188.580002,-34.720001,-11,-47,1353,-8.052000,-34.403999,990.395996,94,-55,42,6580.000000,-3850.000000,2940.000000,105,31.408691
A1,Thu 1970-01-01 01:00:00 CET,506.044,-2528,1340,-212,-353.920013,187.600006,-29.680000,-8,-45,1353,-5.856000,-32.939999,990.395996,95,-50,46,6650.000000,-3500.000000,3220.000000,107,31.530762
A1,Thu 1970-01-01 01:00:00 CET,507.042,-2550,1343,-217,-357.000000,188.020004,-30.380001,-12,-46,1350,-8.784000,-33.672001,988.200012,94,-51,40,6580.000000,-3570.000000,2800.000000,106,31.469727
A1,Thu 1970-01-01 01:00:00 CET,508.042,-2544,1359,-187,-356.160004,190.259995,-26.180000,-12,-45,1351,-8.784000,-32.939999,988.932007,91,-50,41,6370.000000,-3500.000000,2870.000000,107,31.530762
A1,Thu 1970-01-01 01:00:00 CET,509.042,-2530,1331,-257,-354.200012,186.339996,-35.980000,-15,-44,1352,-10.980000,-32.208000,989.664001,98,-48,41,6860.000000,-3360.000000,2870.000000,104,31.347656
A1,Thu 1970-01-01 01:00:00 CET,510.043,-2507,1331,-273,-350.980011,186.339996,-38.220001,-10,-45,1349,-7.320000,-32.939999,987.468018,93,-49,39,6510.000000,-3430.000000,2730.000000,107,31.530762
A1,Thu 1970-01-01 01:00:00 CET,511.043,-2566,1333,-244,-359.239990,186.619995,-34.160000,-12,-49,1347,-8.784000,-35.868000,986.003967,96,-51,40,6720.000000,-3570.000000,2800.000000,107,31.530762
A1,Thu 1970-01-01 01:00:00 CET,512.042,-2482,1278,-301,-347.480011,178.919998,-42.139999,-9,-44,1349,-6.588000,-32.208000,987.468018,97,-51,43,6790.000000,-3570.000000,3010.000000,109,31.652832
A1,Thu 1970-01-01 01:00:00 CET,513.042,-2502,1327,-184,-350.279999,185.779999,-25.760000,-7,-43,1350,-5.124000,-31.476000,988.200012,96,-49,37,6720.000000,-3430.000000,2590.000000,109,31.652832
A1,Thu 1970-01-01 01:00:00 CET,514.044,-2533,1384,-154,-354.619995,193.759995,-21.559999,-11,-50,1349,-8.052000,-36.599998,987.468018,93,-51,45,6510.000000,-3570.000000,3150.000000,108,31.591797
A1,Thu 1970-01-01 01:00:00 CET,515.043,-2527,1340,-147,-353.779999,187.600006,-20.580000,-12,-42,1348,-8.784000,-30.743999,986.735962,100,-49,41,7000.000000,-3430.000000,2870.000000,106,31.469727
A1,Thu 1970-01-01 01:00:00 CET,516.042,-2525,1346,-162,-353.500000,188.440002,-22.680000,-12,-47,1351,-8.784000,-34.403999,988.932007,94,-50,43,6580.000000,-3500.000000,3010.000000,107,31.530762
A1,Thu 1970-01-01 01:00:00 CET,517.043,-2535,1341,-135,-354.899994,187.740005,-18.900000,-13,-44,1353,-9.516000,-32.208000,990.395996,93,-47,46,6510.000000,-3290.000000,3220.000000,108,31.591797
A1,Thu 1970-01-01 01:00:00 CET,518.042,-2568,1354,-156,-359.519989,189.559998,-21.840000,-13,-47,1348,-9.516000,-34.403999,986.735962,97,-52,40,6790.000000,-3640.000000,2800.000000,108,31.591797
A1,Thu 1970-01-01 01:00:00 CET,519.042,-2560,1376,-208,-358.399994,192.639999,-29.120001,-12,-47,1353,-8.784000,-34.403999,990.395996,98,-51,41,6860.000000,-3570.000000,2870.000000,107,31.530762
A1,Thu 1970-01-01 01:00:00 CET,520.042,-2586,1372,-184,-362.040009,192.080002,-25.760000,-11,-41,1354,-8.052000,-30.011999,991.127991,90,-47,41,6300.000000,-3290.000000,2870.000000,107,31.530762
A1,Thu 1970-01-01 01:00:00 CET,521.042,-2578,1365,-148,-360.920013,191.100006,-20.719999,-12,-47,1349,-8.784000,-34.403999,987.468018,97,-47,40,6790.000000,-3290.000000,2800.000000,105,31.408691
A1,Thu 1970-01-01 01:00:00 CET,522.043,-2564,1376,-199,-358.959991,192.639999,-27.860001,-12,-43,1347,-8.784000,-31.476000,986.003967,97,-57,38,6790.000000,-3990.000000,2660.000000,109,31.652832
A1,Thu 1970-01-01 01:00:00 CET,523.045,-2563,1363,-129,-358.820007,190.820007,-18.059999,-11,-44,1348,-8.052000,-32.208000,986.735962,95,-52,40,6650.000000,-3640.000000,2800.000000,106,31.469727
A1,Thu 1970-01-01 01:00:00 CET,524.044,-2561,1387,-185,-358.540009,194.180008,-25.900000,-9,-48,1352,-6.588000,-35.136002,989.664001,94,-47,43,6580.000000,-3290.000000,3010.000000,107,31.530762
A1,Thu 1970-01-01 01:00:00 CET,525.043,-2557,1372,-331,-357.980011,192.080002,-46.340000,-11,-43,1351,-8.052000,-31.476000,988.932007,96,-50,42,6720.000000,-3500.000000,2940.000000,110,31.713867
A1,Thu 1970-01-01 01:00:00 CET,526.043,-2541,1365,-329,-355.739990,191.100006,-46.060001,-13,-40,1352,-9.516000,-29.279999,989.664001,90,-48,40,6300.000000,-3360.000000,2800.000000,110,31.713867
A1,Thu 1970-01-01 01:00:00 CET,527.044,-2548,1359,-199,-356.720001,190.259995,-27.860001,-8,-46,1348,-5.856000,-33.672001,986.735962,95,-47,39,6650.000000,-3290.000000,2730.000000,108,31.591797
A1,Thu 1970-01-01 01:00:00 CET,528.043,-2519,1346,-218,-352.660004,188.440002,-30.520000,-13,-44,1352,-9.516000,-32.208000,989.664001,94,-51,42,6580.000000,-3570.000000,2940.000000,109,31.652832
A1,Thu 1970-01-01 01:00:00 CET,529.042,-2541,1373,-142,-355.739990,192.220001,-19.879999,-10,-44,1353,-7.320000,-32.208000,990.395996,90,-52,36,6300.000000,-3640.000000,2520.000000,108,31.591797
A1,Thu 1970-01-01 01:00:00 CET,530.042,-2531,1376,-255,-354.339996,192.639999,-35.700001,-10,-47,1352,-7.320000,-34.403999,989.664001,95,-49,38,6650.000000,-3430.000000,2660.000000,108,31.591797
A1,Thu 1970-01-01 01:00:00 CET,531.043,-2516,1339,-237,-352.239990,187.460007,-33.180000,-11,-44,1351,-8.052000,-32.208000,988.932007,91,-50,37,6370.000000,-3500.000000,2590.000000,109,31.652832
A1,Thu 1970-01-01 01:00:00 CET,532.043,-2552,1377,-219,-357.279999,192.779999,-30.660000,-11,-49,1352,-8.052000,-35.868000,989.664001,93,-47,43,6510.000000,-3290.000000,3010.000000,111,31.774902
A1,Thu 1970-01-01 01:00:00 CET,533.044,-2550,1372,-241,-357.000000,192.080002,-33.740002,-11,-45,1349,-8.052000,-32.939999,987.468018,99,-47,40,6930.000000,-3290.000000,2800.000000,108,31.591797
A1,Thu 1970-01-01 01:00:00 CET,534.044,-2523,1358,-217,-353.220001,190.119995,-30.380001,-10,-45,1349,-7.320000,-32.939999,987.468018,90,-53,44,6300.000000,-3710.000000,3080.000000,111,31.774902
A1,Thu 1970-01-01 01:00:00 CET,535.044,-2553,1374,-165,-357.420013,192.360001,-23.100000,-7,-44,1350,-5.124000,-32.208000,988.200012,95,-53,43,6650.000000,-3710.000000,3010.000000,112,31.835938
A1,Thu 1970-01-01 01:00:00 CET,536.042,-2575,1350,-113,-360.500000,189.000000,-15.820000,-11,-46,1351,-8.052000,-33.672001,988.932007,92,-46,44,6440.000000,-3220.000000,3080.000000,110,31.713867
A1,Thu 1970-01-01 01:00:00 CET,537.042,-2534,1349,-229,-354.760010,188.860001,-32.060001,-15,-45,1354,-10.980000,-32.939999,991.127991,95,-50,41,6650.000000,-3500.000000,2870.000000,111,31.774902
A1,Thu 1970-01-01 01:00:00 CET,538.04,-2584,1391,-152,-361.760010,194.740005,-21.280001,-12,-42,1354,-8.784000,-30.743999,991.127991,93,-51,41,6510.000000,-3570.000000,2870.000000,111,31.774902
A1,Thu 1970-01-01 01:00:00 CET,539.041,-2544,1337,-183,-356.160004,187.180008,-25.620001,-15,-46,1352,-10.980000,-33.672001,989.664001,94,-52,42,6580.000000,-3640.000000,2940.000000,110,31.713867
A1,Thu 1970-01-01 01:00:00 CET,540.042,-2575,1334,-153,-360.500000,186.759995,-21.420000,-10,-42,1350,-7.320000,-30.743999,988.200012,101,-49,42,7070.000000,-3430.000000,2940.000000,111,31.774902
A1,Thu 1970-01-01 01:00:00 CET,541.043,-2545,1375,-176,-356.299988,192.500000,-24.639999,-15,-49,1352,-10.980000,-35.868000,989.664001,100,-53,39,7000.000000,-3710.000000,2730.000000,109,31.652832
A1,Thu 1970-01-01 01:00:00 CET,542.042,-2524,1414,-249,-353.360016,197.960007,-34.860001,-10,-48,1351,-7.320000,-35.136002,988.932007,95,-49,39,6650.000000,-3430.000000,2730.000000,112,31.835938
A1,Thu 1970-01-01 01:00:00 CET,543.043,-2575,1377,-204,-360.500000,192.779999,-28.559999,-10,-45,1352,-7.320000,-32.939999,989.664001,93,-52,40,6510.000000,-3640.000000,2800.000000,110,31.713867
A1,Thu 1970-01-01 01:00:00 CET,544.043,-2536,1349,-245,-355.040009,188.860001,-34.299999,-9,-46,1352,-6.588000,-33.672001,989.664001,99,-47,42,6930.000000,-3290.000000,2940.000000,112,31.835938
A1,Thu 1970-01-01 01:00:00 CET,545.043,-2575,1377,-189,-360.500000,192.779999,-26.460001,-14,-47,1346,-10.248000,-34.403999,985.271973,90,-51,43,6300.000000,-3570.000000,3010.000000,110,31.713867
A1,Thu 1970-01-01 01:00:00 CET,546.043,-2534,1348,-137,-354.760010,188.720001,-19.180000,-9,-43,1347,-6.588000,-31.476000,986.003967,91,-55,47,6370.000000,-3850.000000,3290.000000,111,31.774902
A1,Thu 1970-01-01 01:00:00 CET,547.043,-2529,1370,-181,-354.059998,191.800003,-25.340000,-15,-46,1349,-10.980000,-33.672001,987.468018,96,-48,38,6720.000000,-3360.000000,2660.000000,111,31.774902
A1,Thu 1970-01-01 01:00:00 CET,548.043,-2529,1372,-208,-354.059998,192.080002,-29.120001,-10,-44,1347,-7.320000,-32.208000,986.003967,89,-48,44,6230.000000,-3360.000000,3080.000000,112,31.835938
A1,Thu 1970-01-01 01:00:00 CET,549.042,-2532,1377,-157,-354.480011,192.779999,-21.980000,-8,-47,1351,-5.856000,-34.403999,988.932007,95,-52,39,6650.000000,-3640.000000,2730.000000,111,31.774902
A1,Thu 1970-01-01 01:00:00 CET,550.043,-2527,1361,-244,-353.779999,190.539993,-34.160000,-13,-47,1350,-9.516000,-34.403999,988.200012,84,-51,42,5880.000000,-3570.000000,2940.000000,113,31.896973
A1,Thu 1970-01-01 01:00:00 CET,551.042,-2557,1324,-276,-357.980011,185.360001,-38.639999,-14,-48,1350,-10.248000,-35.136002,988.200012,91,-51,41,6370.000000,-3570.000000,2870.000000,114,31.958008
A1,Thu 1970-01-01 01:00:00 CET,552.043,-2491,1364,-365,-348.739990,190.960007,-51.099998,-10,-44,1353,-7.320000,-32.208000,990.395996,95,-50,38,6650.000000,-3500.000000,2660.000000,113,31.896973
A1,Thu 1970-01-01 01:00:00 CET,553.043,-2586,1358,-262,-362.040009,190.119995,-36.680000,-12,-46,1349,-8.784000,-33.672001,987.468018,97,-51,39,6790.000000,-3570.000000,2730.000000,111,31.774902
A1,Thu 1970-01-01 01:00:00 CET,554.042,-2485,1388,-272,-347.899994,194.320007,-38.080002,-14,-46,1350,-10.248000,-33.672001,988.200012,92,-50,40,6440.000000,-3500.000000,2800.000000,114,31.958008
A1,Thu 1970-01-01 01:00:00 CET,555.042,-2533,1415,-234,-354.619995,198.100006,-32.759998,-11,-40,1348,-8.052000,-29.279999,986.735962,90,-54,44,6300.000000,-3780.000000,3080.000000,112,31.835938
A1,Thu 1970-01-01 01:00:00 CET,556.042,-2528,1366,-195,-353.920013,191.240005,-27.299999,-12,-47,1349,-8.784000,-34.403999,987.468018,92,-51,41,6440.000000,-3570.000000,2870.000000,115,32.019043
A1,Thu 1970-01-01 01:00:00 CET,557.043,-2513,1355,-226,-351.820007,189.699997,-31.639999,-6,-49,1350,-4.392000,-35.868000,988.200012,93,-54,42,6510.000000,-3780.000000,2940.000000,112,31.835938
A1,Thu 1970-01-01 01:00:00 CET,558.043,-2541,1370,-128,-355.739990,191.800003,-17.920000,-11,-47,1345,-8.052000,-34.403999,984.539978,97,-54,40,6790.000000,-3780.000000,2800.000000,113,31.896973
A1,Thu 1970-01-01 01:00:00 CET,559.044,-2514,1341,-192,-351.959991,187.740005,-26.880001,-10,-45,1351,-7.320000,-32.939999,988.932007,91,-52,44,6370.000000,-3640.000000,3080.000000,113,31.896973
A1,Thu 1970-01-01 01:00:00 CET,560.044,-2547,1375,-172,-356.579987,192.500000,-24.080000,-12,-46,1352,-8.784000,-33.672001,989.664001,92,-49,41,6440.000000,-3430.000000,2870.000000,113,31.896973
A1,Thu 1970-01-01 01:00:00 CET,561.043,-2524,1331,-165,-353.360016,186.339996,-23.100000,-10,-42,1353,-7.320000,-30.743999,990.395996,89,-50,41,6230.000000,-3500.000000,2870.000000,114,31.958008
A1,Thu 1970-01-01 01:00:00 CET,562.043,-2536,1321,-223,-355.040009,184.940002,-31.219999,-12,-43,1350,-8.784000,-31.476000,988.200012,92,-49,41,6440.000000,-3430.000000,2870.000000,112,31.835938
A1,Thu 1970-01-01 01:00:00 CET,563.039,-2507,1330,-311,-350.980011,186.199997,-43.540001,-11,-40,1351,-8.052000,-29.279999,988.932007,91,-51,42,6370.000000,-3570.000000,2940.000000,113,31.896973
A1,Thu 1970-01-01 01:00:00 CET,564.042,-2500,1350,-210,-350.000000,189.000000,-29.400000,-8,-41,1350,-5.856000,-30.011999,988.200012,93,-49,44,6510.000000,-3430.000000,3080.000000,113,31.896973
A1,Thu 1970-01-01 01:00:00 CET,565.043,-2522,1343,-143,-353.079987,188.020004,-20.020000,-14,-46,1348,-10.248000,-33.672001,986.735962,94,-52,41,6580.000000,-3640.000000,2870.000000,113,31.896973
A1,Thu 1970-01-01 01:00:00 CET,566.043,-2553,1360,-198,-357.420013,190.399994,-27.719999,-15,-44,1348,-10.980000,-32.208000,986.735962,93,-54,37,6510.000000,-3780.000000,2590.000000,117,32.141113
A1,Thu 1970-01-01 01:00:00 CET,567.043,-2523,1343,-197,-353.220001,188.020004,-27.580000,-11,-48,1354,-8.052000,-35.136002,991.127991,93,-49,40,6510.000000,-3430.000000,2800.000000,115,32.019043
A1,Thu 1970-01-01 01:00:00 CET,568.043,-2522,1418,-164,-353.079987,198.520004,-22.960001,-10,-49,1344,-7.320000,-35.868000,983.807983,96,-51,40,6720.000000,-3570.000000,2800.000000,114,31.958008
A1,Thu 1970-01-01 01:00:00 CET,569.042,-2541,1387,-121,-355.739990,194.180008,-16.940001,-11,-46,1351,-8.052000,-33.672001,988.932007,92,-51,40,6440.000000,-3570.000000,2800.000000,115,32.019043
A1,Thu 1970-01-01 01:00:00 CET,570.043,-2563,1387,-175,-358.820007,194.180008,-24.500000,-15,-47,1353,-10.980000,-34.403999,990.395996,94,-50,41,6580.000000,-3500.000000,2870.000000,115,32.019043
A1,Thu 1970-01-01 01:00:00 CET,571.043,-2507,1352,-206,-350.980011,189.279999,-28.840000,-14,-47,1348,-10.248000,-34.403999,986.735962,93,-52,40,6510.000000,-3640.000000,2800.000000,115,32.019043
A1,Thu 1970-01-01 01:00:00 CET,572.043,-2531,1316,-91,-354.339996,184.240005,-12.740000,-6,-47,1350,-4.392000,-34.403999,988.200012,97,-55,38,6790.000000,-3850.000000,2660.000000,116,32.080078
A1,Thu 1970-01-01 01:00:00 CET,573.043,-2485,1345,-141,-347.899994,188.300003,-19.740000,-9,-43,1350,-6.588000,-31.476000,988.200012,91,-48,42,6370.000000,-3360.000000,2940.000000,116,32.080078
A1,Thu 1970-01-01 01:00:00 CET,574.044,-2524,1370,-126,-353.360016,191.800003,-17.639999,-17,-47,1350,-12.444000,-34.403999,988.200012,91,-49,41,6370.000000,-3430.000000,2870.000000,113,31.896973
A1,Thu 1970-01-01 01:00:00 CET,575.044,-2525,1352,-77,-353.500000,189.279999,-10.780000,-11,-47,1349,-8.052000,-34.403999,987.468018,94,-47,40,6580.000000,-3290.000000,2800.000000,116,32.080078
A1,Thu 1970-01-01 01:00:00 CET,576.041,-2563,1326,-192,-358.820007,185.639999,-26.880001,-11,-44,1349,-8.052000,-32.208000,987.468018,101,-53,41,7070.000000,-3710.000000,2870.000000,117,32.141113
A1,Thu 1970-01-01 01:00:00 CET,577.044,-2521,1342,-180,-352.940002,187.880005,-25.200001,-14,-45,1344,-10.248000,-32.939999,983.807983,94,-49,43,6580.000000,-3430.000000,3010.000000,118,32.202148
A1,Thu 1970-01-01 01:00:00 CET,578.043,-2575,1355,-136,-360.500000,189.699997,-19.040001,-11,-44,1351,-8.052000,-32.208000,988.932007,96,-51,41,6720.000000,-3570.000000,2870.000000,115,32.019043
A1,Thu 1970-01-01 01:00:00 CET,579.043,-2541,1363,-140,-355.739990,190.820007,-19.600000,-12,-45,1345,-8.784000,-32.939999,984.539978,90,-53,40,6300.000000,-3710.000000,2800.000000,114,31.958008
A1,Thu 1970-01-01 01:00:00 CET,580.043,-2568,1358,-189,-359.519989,190.119995,-26.460001,-11,-44,1354,-8.052000,-32.208000,991.127991,97,-49,41,6790.000000,-3430.000000,2870.000000,116,32.080078
A1,Thu 1970-01-01 01:00:00 CET,581.043,-2582,1346,-94,-361.480011,188.440002,-13.160000,-14,-43,1349,-10.248000,-31.476000,987.468018,95,-54,39,6650.000000,-3780.000000,2730.000000,116,32.080078
A1,Thu 1970-01-01 01:00:00 CET,582.043,-2562,1358,-110,-358.679993,190.119995,-15.400000,-12,-49,1347,-8.784000,-35.868000,986.003967,98,-49,38,6860.000000,-3430.000000,2660.000000,118,32.202148
A1,Thu 1970-01-01 01:00:00 CET,583.043,-2548,1380,-144,-356.720001,193.199997,-20.160000,-8,-45,1346,-5.856000,-32.939999,985.271973,102,-51,42,7140.000000,-3570.000000,2940.000000,117,32.141113
A1,Thu 1970-01-01 01:00:00 CET,584.043,-2561,1386,-149,-358.540009,194.039993,-20.860001,-11,-46,1348,-8.052000,-33.672001,986.735962,96,-50,43,6720.000000,-3500.000000,3010.000000,118,32.202148
A1,Thu 1970-01-01 01:00:00 CET,585.043,-2558,1347,-57,-358.119995,188.580002,-7.980000,-11,-47,1349,-8.052000,-34.403999,987.468018,101,-51,45,7070.000000,-3570.000000,3150.000000,118,32.202148
A1,Thu 1970-01-01 01:00:00 CET,586.044,-2551,1355,-290,-357.140015,189.699997,-40.599998,-15,-48,1352,-10.980000,-35.136002,989.664001,94,-50,41,6580.000000,-3500.000000,2870.000000,119,32.263184
A1,Thu 1970-01-01 01:00:00 CET,587.044,-2579,1375,-212,-361.059998,192.500000,-29.680000,-13,-45,1346,-9.516000,-32.939999,985.271973,98,-51,44,6860.000000,-3570.000000,3080.000000,115,32.019043
A1,Thu 1970-01-01 01:00:00 CET,588.043,-2576,1342,-252,-360.640015,187.880005,-35.279999,-14,-46,1349,-10.248000,-33.672001,987.468018,95,-51,41,6650.000000,-3570.000000,2870.000000,118,32.202148
A1,Thu 1970-01-01 01:00:00 CET,589.042,-2532,1360,-225,-354.480011,190.399994,-31.500000,-8,-46,1351,-5.856000,-33.672001,988.932007,94,-50,42,6580.000000,-3500.000000,2940.000000,118,32.202148
A1,Thu 1970-01-01 01:00:00 CET,590.042,-2575,1281,-176,-360.500000,179.339996,-24.639999,-11,-42,1345,-8.052000,-30.743999,984.539978,94,-49,41,6580.000000,-3430.000000,2870.000000,117,32.141113
A1,Thu 1970-01-01 01:00:00 CET,591.043,-2534,1368,-124,-354.760010,191.520004,-17.360001,-10,-51,1348,-7.320000,-37.332001,986.735962,99,-50,39,6930.000000,-3500.000000,2730.000000,119,32.263184
A1,Thu 1970-01-01 01:00:00 CET,592.043,-2561,1320,-197,-358.540009,184.800003,-27.580000,-12,-45,1348,-8.784000,-32.939999,986.735962,94,-51,42,6580.000000,-3570.000000,2940.000000,116,32.080078
A1,Thu 1970-01-01 01:00:00 CET,593.043,-2574,1374,-250,-360.360016,192.360001,-35.000000,-12,-47,1349,-8.784000,-34.403999,987.468018,100,-52,43,7000.000000,-3640.000000,3010.000000,118,32.202148
A1,Thu 1970-01-01 01:00:00 CET,594.042,-2553,1367,-321,-357.420013,191.380005,-44.939999,-14,-49,1347,-10.248000,-35.868000,986.003967,98,-50,43,6860.000000,-3500.000000,3010.000000,117,32.141113
A1,Thu 1970-01-01 01:00:00 CET,595.044,-2571,1354,-192,-359.940002,189.559998,-26.880001,-9,-46,1345,-6.588000,-33.672001,984.539978,103,-60,44,7210.000000,-4200.000000,3080.000000,118,32.202148
A1,Thu 1970-01-01 01:00:00 CET,596.043,-2566,1370,-158,-359.239990,191.800003,-22.120001,-11,-46,1348,-8.052000,-33.672001,986.735962,97,-50,37,6790.000000,-3500.000000,2590.000000,119,32.263184
A1,Thu 1970-01-01 01:00:00 CET,597.043,-2564,1373,-136,-358.959991,192.220001,-19.040001,-9,-50,1346,-6.588000,-36.599998,985.271973,94,-50,40,6580.000000,-3500.000000,2800.000000,119,32.263184
A1,Thu 1970-01-01 01:00:00 CET,598.043,-2587,1361,-134,-362.179993,190.539993,-18.760000,-11,-46,1349,-8.052000,-33.672001,987.468018,103,-52,41,7210.000000,-3640.000000,2870.000000,118,32.202148
A1,Thu 1970-01-01 01:00:00 CET,599.043,-2551,1347,-192,-357.140015,188.580002,-26.880001,-4,-47,1348,-2.928000,-34.403999,986.735962,94,-52,43,6580.000000,-3640.000000,3010.000000,119,32.263184
A1,Thu 1970-01-01 01:00:00 CET,600.043,-2583,1356,-139,-361.619995,189.839996,-19.460001,-13,-48,1346,-9.516000,-35.136002,985.271973,94,-50,39,6580.000000,-3500.000000,2730.000000,120,32.324219
A1,Thu 1970-01-01 01:00:00 CET,601.042,-2564,1320,-112,-358.959991,184.800003,-15.680000,-10,-45,1350,-7.320000,-32.939999,988.200012,95,-54,39,6650.000000,-3780.000000,2730.000000,118,32.202148
A1,Thu 1970-01-01 01:00:00 CET,602.042,-2563,1351,-175,-358.820007,189.139999,-24.500000,-6,-44,1350,-4.392000,-32.208000,988.200012,95,-49,40,6650.000000,-3430.000000,2800.000000,119,32.263184
A1,Thu 1970-01-01 01:00:00 CET,603.04,-2585,1351,-246,-361.899994,189.139999,-34.439999,-8,-46,1350,-5.856000,-33.672001,988.200012,97,-53,40,6790.000000,-3710.000000,2800.000000,120,32.324219
A1,Thu 1970-01-01 01:00:00 CET,604.044,-2611,1385,-230,-365.540009,193.899994,-32.200001,-16,-46,1345,-11.712000,-33.672001,984.539978,98,-50,43,6860.000000,-3500.000000,3010.000000,121,32.385254
A1,Thu 1970-01-01 01:00:00 CET,605.042,-2559,1392,-156,-358.260010,194.880005,-21.840000,-10,-48,1350,-7.320000,-35.136002,988.200012,93,-52,41,6510.000000,-3640.000000,2870.000000,119,32.263184
A1,Thu 1970-01-01 01:00:00 CET,606.043,-2591,1383,-191,-362.739990,193.619995,-26.740000,-12,-48,1349,-8.784000,-35.136002,987.468018,102,-50,41,7140.000000,-3500.000000,2870.000000,120,32.324219
A1,Thu 1970-01-01 01:00:00 CET,607.043,-2528,1352,-220,-353.920013,189.279999,-30.799999,-11,-45,1352,-8.052000,-32.939999,989.664001,90,-56,42,6300.000000,-3920.000000,2940.000000,119,32.263184
A1,Thu 1970-01-01 01:00:00 CET,608.043,-2567,1334,-159,-359.380005,186.759995,-22.260000,-11,-48,1350,-8.052000,-35.136002,988.200012,96,-52,45,6720.000000,-3640.000000,3150.000000,121,32.385254
A1,Thu 1970-01-01 01:00:00 CET,609.043,-2553,1374,-164,-357.420013,192.360001,-22.960001,-10,-40,1349,-7.320000,-29.279999,987.468018,96,-53,44,6720.000000,-3710.000000,3080.000000,118,32.202148
A1,Thu 1970-01-01 01:00:00 CET,610.043,-2566,1350,-166,-359.239990,189.000000,-23.240000,-15,-46,1351,-10.980000,-33.672001,988.932007,96,-51,43,6720.000000,-3570.000000,3010.000000,117,32.141113
A1,Thu 1970-01-01 01:00:00 CET,611.043,-2561,1378,-124,-358.540009,192.919998,-17.360001,-12,-44,1351,-8.784000,-32.208000,988.932007,94,-49,40,6580.000000,-3430.000000,2800.000000,120,32.324219
A1,Thu 1970-01-01 01:00:00 CET,612.043,-2518,1397,-136,-352.519989,195.580002,-19.040001,-12,-46,1350,-8.784000,-33.672001,988.200012,101,-50,40,7070.000000,-3500.000000,2800.000000,122,32.446289
A1,Thu 1970-01-01 01:00:00 CET,613.044,-2529,1374,-152,-354.059998,192.360001,-21.280001,-10,-46,1348,-7.320000,-33.672001,986.735962,95,-51,45,6650.000000,-3570.000000,3150.000000,121,32.385254
A1,Thu 1970-01-01 01:00:00 CET,614.041,-2528,1326,-187,-353.920013,185.639999,-26.180000,-14,-45,1348,-10.248000,-32.939999,986.735962,102,-52,41,7140.000000,-3640.000000,2870.000000,119,32.263184
A1,Thu 1970-01-01 01:00:00 CET,615.041,-2604,1365,-141,-364.559998,191.100006,-19.740000,-7,-46,1350,-5.124000,-33.672001,988.200012,97,-51,39,6790.000000,-3570.000000,2730.000000,122,32.446289
